back,emotion,plocation,tlocation,Mtext,Ftext,hint,length,sign,corrAns,Pic,trials_2.thisRepN,trials_2.thisTrialN,trials_2.thisN,trials_2.thisIndex,trials.thisRepN,trials.thisTrialN,trials.thisN,trials.thisIndex,trials_3.thisRepN,trials_3.thisTrialN,trials_3.thisN,trials_3.thisIndex,confirm.started,text.started,confirm.keys,confirm.rt,confirm_2.started,text_2.started,confirm_2.keys,confirm_2.rt,Pre_instruction.started,pre_2.started,pre_2.keys,pre_2.rt,text_3.started,key.started,key.stopped,hintext.started,hintext.stopped,Leftlabel.started,Leftlabel.stopped,Rightlabel.started,Rightlabel.stopped,image.started,text_3.stopped,image.stopped,key.keys,key.corr,feedback_01.started,feedback_01.stopped,key.rt,confirm_3.started,text_4.started,confirm_3.keys,confirm_3.rt,text_6.started,key_2.started,key_2.stopped,Leftlabel_2.started,Leftlabel_2.stopped,Rightlabel_2.started,Rightlabel_2.stopped,hintext_2.started,hintext_2.stopped,image_2.started,text_6.stopped,image_2.stopped,key_2.keys,key_2.corr,key_2.rt,text_7.started,key_resp_5.started,key_resp_5.keys,key_resp_5.rt,text_11.started,key_resp_4.started,text_11.stopped,key_resp_4.stopped,key_resp_4.keys,participant,session,date,expName,psychopyVersion,frameRate,
,,,,,,,,,,,,,,,,,,,,,,,10.843081699998947,10.843081699998947,space,1.1063967999998567,,,,,,,,,,,,,,,,,,,,,,,,,,,,,,,,,,,,,,,,,,,,,,,,,,,,,,1,001,2022-11-20_23h24.18.685,Lab5_Emotional_NBack_Task,2022.2.4,164.75577427881203,
1-back,negative,practice_nag_1.xlsx,nag_1.xlsx,"1-back在本轮实验中，您需要牢牢记住当前的符号对的值，并判断是否与前一项相等。
请按任意键以继续
","1-back好了，准备开始正式测试了吗如果你看到的符号对和前一项相匹配，请在3.5秒内按下 "K"键。否则请按"S"键。如果你准备好了，请按任何键开始实验。","你看到的符号对和前一项相匹配吗？如果是，请按"K"键，反之请按"S"键。",21,§ £,None,source/negative/9592.JPG,0,0,0,1,,,,,0,0,0,0,,,,,11.989192299999559,11.989192299999559,space,0.19124760000158858,12.189996600000086,12.189996600000086,space,1.0297988000002078,27.831786900000225,27.831786900000225,13.2739289000001,27.831786900000225,13.2739289000001,27.831786900000225,13.2739289000001,27.831786900000225,13.2739289000001,28.323585699999967,28.33547499999986,16.783314899999823,s,0,28.60110910000003,29.61918490000062,0.7498703000019304,29.61918490000062,29.61918490000062,space,0.7282792999994854,30.39487249999911,30.39487249999911,30.39487249999911,30.39487249999911,30.39487249999911,30.39487249999911,30.39487249999911,30.39487249999911,30.39487249999911,30.850299300000188,30.89921460000005,33.86794089999967,None,1,,,,,,,,,,,1,001,2022-11-20_23h24.18.685,Lab5_Emotional_NBack_Task,2022.2.4,164.75577427881203,
1-back,negative,practice_nag_1.xlsx,nag_1.xlsx,"1-back在本轮实验中，您需要牢牢记住当前的符号对的值，并判断是否与前一项相等。
请按任意键以继续
","1-back好了，准备开始正式测试了吗如果你看到的符号对和前一项相匹配，请在3.5秒内按下 "K"键。否则请按"S"键。如果你准备好了，请按任何键开始实验。","你看到的符号对和前一项相匹配吗？如果是，请按"K"键，反之请按"S"键。",21,§ ‡,s,source/negative/1030.JPG,0,0,0,1,,,,,0,1,1,1,,,,,,,,,,,,,,,,,,,,,,,,,,,,,,,,,,33.86794089999967,33.86794089999967,,33.86794089999967,,33.86794089999967,,33.86794089999967,,34.34766370000034,34.371807499999704,,s,1,0.5031738000016048,,,,,,,,,,1,001,2022-11-20_23h24.18.685,Lab5_Emotional_NBack_Task,2022.2.4,164.75577427881203,
1-back,negative,practice_nag_1.xlsx,nag_1.xlsx,"1-back在本轮实验中，您需要牢牢记住当前的符号对的值，并判断是否与前一项相等。
请按任意键以继续
","1-back好了，准备开始正式测试了吗如果你看到的符号对和前一项相匹配，请在3.5秒内按下 "K"键。否则请按"S"键。如果你准备好了，请按任何键开始实验。","你看到的符号对和前一项相匹配吗？如果是，请按"K"键，反之请按"S"键。",21,§ ‡,k,source/negative/6570_1.JPG,0,0,0,1,,,,,0,2,2,2,,,,,,,,,,,,,,,,,,,,,,,,,,,,,,,,,,34.38901540000006,34.38901540000006,,34.38901540000006,,34.38901540000006,,34.38901540000006,,34.87486109999918,34.89295610000045,,k,1,0.7299322000017128,,,,,,,,,,1,001,2022-11-20_23h24.18.685,Lab5_Emotional_NBack_Task,2022.2.4,164.75577427881203,
1-back,negative,practice_nag_1.xlsx,nag_1.xlsx,"1-back在本轮实验中，您需要牢牢记住当前的符号对的值，并判断是否与前一项相等。
请按任意键以继续
","1-back好了，准备开始正式测试了吗如果你看到的符号对和前一项相匹配，请在3.5秒内按下 "K"键。否则请按"S"键。如果你准备好了，请按任何键开始实验。","你看到的符号对和前一项相匹配吗？如果是，请按"K"键，反之请按"S"键。",21,§ £,s,source/negative/9470.JPG,0,0,0,1,,,,,0,3,3,3,,,,,,,,,,,,,,,,,,,,,,,,,,,,,,,,,,35.141014099999666,35.141014099999666,,35.141014099999666,,35.141014099999666,,35.141014099999666,,35.626440099998945,35.64443039999969,,s,1,0.9261703000011039,,,,,,,,,,1,001,2022-11-20_23h24.18.685,Lab5_Emotional_NBack_Task,2022.2.4,164.75577427881203,
1-back,negative,practice_nag_1.xlsx,nag_1.xlsx,"1-back在本轮实验中，您需要牢牢记住当前的符号对的值，并判断是否与前一项相等。
请按任意键以继续
","1-back好了，准备开始正式测试了吗如果你看到的符号对和前一项相匹配，请在3.5秒内按下 "K"键。否则请按"S"键。如果你准备好了，请按任何键开始实验。","你看到的符号对和前一项相匹配吗？如果是，请按"K"键，反之请按"S"键。",21,¤ #,s,source/negative/7195.JPG,0,0,0,1,,,,,0,4,4,4,,,,,,,,,,,,,,,,,,,,,,,,,,,,,,,,,,36.09229570000025,36.09229570000025,,36.09229570000025,,36.09229570000025,,36.09229570000025,,36.57218180000018,36.595818300000246,,s,1,1.7144373000010091,,,,,,,,,,1,001,2022-11-20_23h24.18.685,Lab5_Emotional_NBack_Task,2022.2.4,164.75577427881203,
1-back,negative,practice_nag_1.xlsx,nag_1.xlsx,"1-back在本轮实验中，您需要牢牢记住当前的符号对的值，并判断是否与前一项相等。
请按任意键以继续
","1-back好了，准备开始正式测试了吗如果你看到的符号对和前一项相匹配，请在3.5秒内按下 "K"键。否则请按"S"键。如果你准备好了，请按任何键开始实验。","你看到的符号对和前一项相匹配吗？如果是，请按"K"键，反之请按"S"键。",21,¤ #,k,source/negative/6370.JPG,0,0,0,1,,,,,0,5,5,5,,,,,,,,,,,,,,,,,,,,,,,,,,,,,,,,,,37.825665299998946,37.825665299998946,,37.825665299998946,,37.825665299998946,,37.825665299998946,,38.31106170000021,38.32929899999908,,k,1,1.3751753000015015,,,,,,,,,,1,001,2022-11-20_23h24.18.685,Lab5_Emotional_NBack_Task,2022.2.4,164.75577427881203,
1-back,negative,practice_nag_1.xlsx,nag_1.xlsx,"1-back在本轮实验中，您需要牢牢记住当前的符号对的值，并判断是否与前一项相等。
请按任意键以继续
","1-back好了，准备开始正式测试了吗如果你看到的符号对和前一项相匹配，请在3.5秒内按下 "K"键。否则请按"S"键。如果你准备好了，请按任何键开始实验。","你看到的符号对和前一项相匹配吗？如果是，请按"K"键，反之请按"S"键。",21,¤ #,k,source/negative/9330.JPG,0,0,0,1,,,,,0,6,6,6,,,,,,,,,,,,,,,,,,,,,,,,,,,,,,,,,,39.21998429999985,39.21998429999985,,39.21998429999985,,39.21998429999985,,39.21998429999985,,39.70513530000062,39.72337370000059,,k,1,0.6702749000014592,,,,,,,,,,1,001,2022-11-20_23h24.18.685,Lab5_Emotional_NBack_Task,2022.2.4,164.75577427881203,
1-back,negative,practice_nag_1.xlsx,nag_1.xlsx,"1-back在本轮实验中，您需要牢牢记住当前的符号对的值，并判断是否与前一项相等。
请按任意键以继续
","1-back好了，准备开始正式测试了吗如果你看到的符号对和前一项相匹配，请在3.5秒内按下 "K"键。否则请按"S"键。如果你准备好了，请按任何键开始实验。","你看到的符号对和前一项相匹配吗？如果是，请按"K"键，反之请按"S"键。",21,¥ §,s,source/negative/3160.JPG,0,0,0,1,,,,,0,7,7,7,,,,,,,,,,,,,,,,,,,,,,,,,,,,,,,,,,39.9104970999997,39.9104970999997,,39.9104970999997,,39.9104970999997,,39.9104970999997,,40.39614880000045,40.41407889999937,,s,1,0.6321878000017023,,,,,,,,,,1,001,2022-11-20_23h24.18.685,Lab5_Emotional_NBack_Task,2022.2.4,164.75577427881203,
1-back,negative,practice_nag_1.xlsx,nag_1.xlsx,"1-back在本轮实验中，您需要牢牢记住当前的符号对的值，并判断是否与前一项相等。
请按任意键以继续
","1-back好了，准备开始正式测试了吗如果你看到的符号对和前一项相匹配，请在3.5秒内按下 "K"键。否则请按"S"键。如果你准备好了，请按任何键开始实验。","你看到的符号对和前一项相匹配吗？如果是，请按"K"键，反之请按"S"键。",21,§ £,s,source/negative/3500.JPG,0,0,0,1,,,,,0,8,8,8,,,,,,,,,,,,,,,,,,,,,,,,,,,,,,,,,,40.5649897000003,40.5649897000003,,40.5649897000003,,40.5649897000003,,40.5649897000003,,41.050621899999896,41.06883249999919,,s,1,0.673022700000729,,,,,,,,,,1,001,2022-11-20_23h24.18.685,Lab5_Emotional_NBack_Task,2022.2.4,164.75577427881203,
1-back,negative,practice_nag_1.xlsx,nag_1.xlsx,"1-back在本轮实验中，您需要牢牢记住当前的符号对的值，并判断是否与前一项相等。
请按任意键以继续
","1-back好了，准备开始正式测试了吗如果你看到的符号对和前一项相匹配，请在3.5秒内按下 "K"键。否则请按"S"键。如果你准备好了，请按任何键开始实验。","你看到的符号对和前一项相匹配吗？如果是，请按"K"键，反之请按"S"键。",21,¥ §,s,source/negative/2141.JPG,0,0,0,1,,,,,0,9,9,9,,,,,,,,,,,,,,,,,,,,,,,,,,,,,,,,,,41.26252899999963,41.26252899999963,,41.26252899999963,,41.26252899999963,,41.26252899999963,,41.741611999999805,41.765393499999846,,s,1,0.6685077000020101,,,,,,,,,,1,001,2022-11-20_23h24.18.685,Lab5_Emotional_NBack_Task,2022.2.4,164.75577427881203,
1-back,negative,practice_nag_1.xlsx,nag_1.xlsx,"1-back在本轮实验中，您需要牢牢记住当前的符号对的值，并判断是否与前一项相等。
请按任意键以继续
","1-back好了，准备开始正式测试了吗如果你看到的符号对和前一项相匹配，请在3.5秒内按下 "K"键。否则请按"S"键。如果你准备好了，请按任何键开始实验。","你看到的符号对和前一项相匹配吗？如果是，请按"K"键，反之请按"S"键。",21,§ £,s,source/negative/9182.JPG,0,0,0,1,,,,,0,10,10,10,,,,,,,,,,,,,,,,,,,,,,,,,,,,,,,,,,41.95264540000062,41.95264540000062,,41.95264540000062,,41.95264540000062,,41.95264540000062,,42.43830379999963,42.45664790000046,,s,1,0.9182250000012573,,,,,,,,,,1,001,2022-11-20_23h24.18.685,Lab5_Emotional_NBack_Task,2022.2.4,164.75577427881203,
1-back,negative,practice_nag_1.xlsx,nag_1.xlsx,"1-back在本轮实验中，您需要牢牢记住当前的符号对的值，并判断是否与前一项相等。
请按任意键以继续
","1-back好了，准备开始正式测试了吗如果你看到的符号对和前一项相匹配，请在3.5秒内按下 "K"键。否则请按"S"键。如果你准备好了，请按任何键开始实验。","你看到的符号对和前一项相匹配吗？如果是，请按"K"键，反之请按"S"键。",21,§ £,k,source/negative/9530.JPG,0,0,0,1,,,,,0,11,11,11,,,,,,,,,,,,,,,,,,,,,,,,,,,,,,,,,,42.892287299999225,42.892287299999225,,42.892287299999225,,42.892287299999225,,42.892287299999225,,43.378169499999785,43.39596809999966,,k,1,0.6991259000005812,,,,,,,,,,1,001,2022-11-20_23h24.18.685,Lab5_Emotional_NBack_Task,2022.2.4,164.75577427881203,
1-back,negative,practice_nag_1.xlsx,nag_1.xlsx,"1-back在本轮实验中，您需要牢牢记住当前的符号对的值，并判断是否与前一项相等。
请按任意键以继续
","1-back好了，准备开始正式测试了吗如果你看到的符号对和前一项相匹配，请在3.5秒内按下 "K"键。否则请按"S"键。如果你准备好了，请按任何键开始实验。","你看到的符号对和前一项相匹配吗？如果是，请按"K"键，反之请按"S"键。",21,§ ‡,s,source/negative/3350.JPG,0,0,0,1,,,,,0,12,12,12,,,,,,,,,,,,,,,,,,,,,,,,,,,,,,,,,,43.613417999999,43.613417999999,,43.613417999999,,43.613417999999,,43.613417999999,,44.09877930000039,44.1167891999994,,s,1,1.323155100000804,,,,,,,,,,1,001,2022-11-20_23h24.18.685,Lab5_Emotional_NBack_Task,2022.2.4,164.75577427881203,
1-back,negative,practice_nag_1.xlsx,nag_1.xlsx,"1-back在本轮实验中，您需要牢牢记住当前的符号对的值，并判断是否与前一项相等。
请按任意键以继续
","1-back好了，准备开始正式测试了吗如果你看到的符号对和前一项相匹配，请在3.5秒内按下 "K"键。否则请按"S"键。如果你准备好了，请按任何键开始实验。","你看到的符号对和前一项相匹配吗？如果是，请按"K"键，反之请按"S"键。",21,§ ‡,k,source/negative/2900_1.JPG,0,0,0,1,,,,,0,13,13,13,,,,,,,,,,,,,,,,,,,,,,,,,,,,,,,,,,44.959046099998886,44.959046099998886,,44.959046099998886,,44.959046099998886,,44.959046099998886,,45.44427279999945,45.46258420000049,,k,1,0.9585026000004291,,,,,,,,,,1,001,2022-11-20_23h24.18.685,Lab5_Emotional_NBack_Task,2022.2.4,164.75577427881203,
1-back,negative,practice_nag_1.xlsx,nag_1.xlsx,"1-back在本轮实验中，您需要牢牢记住当前的符号对的值，并判断是否与前一项相等。
请按任意键以继续
","1-back好了，准备开始正式测试了吗如果你看到的符号对和前一项相匹配，请在3.5秒内按下 "K"键。否则请按"S"键。如果你准备好了，请按任何键开始实验。","你看到的符号对和前一项相匹配吗？如果是，请按"K"键，反之请按"S"键。",21,¥ §,s,source/negative/9181.JPG,0,0,0,1,,,,,0,14,14,14,,,,,,,,,,,,,,,,,,,,,,,,,,,,,,,,,,45.940457400000014,45.940457400000014,,45.940457400000014,,45.940457400000014,,45.940457400000014,,46.42631500000061,46.44438649999938,,s,1,0.7634203000015987,,,,,,,,,,1,001,2022-11-20_23h24.18.685,Lab5_Emotional_NBack_Task,2022.2.4,164.75577427881203,
1-back,negative,practice_nag_1.xlsx,nag_1.xlsx,"1-back在本轮实验中，您需要牢牢记住当前的符号对的值，并判断是否与前一项相等。
请按任意键以继续
","1-back好了，准备开始正式测试了吗如果你看到的符号对和前一项相匹配，请在3.5秒内按下 "K"键。否则请按"S"键。如果你准备好了，请按任何键开始实验。","你看到的符号对和前一项相匹配吗？如果是，请按"K"键，反之请按"S"键。",21,¥ §,k,source/negative/2900.JPG,0,0,0,1,,,,,0,15,15,15,,,,,,,,,,,,,,,,,,,,,,,,,,,,,,,,,,46.72250030000032,46.72250030000032,,46.72250030000032,,46.72250030000032,,46.72250030000032,,47.20805839999957,47.22596150000027,,k,1,0.6552445000015723,,,,,,,,,,1,001,2022-11-20_23h24.18.685,Lab5_Emotional_NBack_Task,2022.2.4,164.75577427881203,
1-back,negative,practice_nag_1.xlsx,nag_1.xlsx,"1-back在本轮实验中，您需要牢牢记住当前的符号对的值，并判断是否与前一项相等。
请按任意键以继续
","1-back好了，准备开始正式测试了吗如果你看到的符号对和前一项相匹配，请在3.5秒内按下 "K"键。否则请按"S"键。如果你准备好了，请按任何键开始实验。","你看到的符号对和前一项相匹配吗？如果是，请按"K"键，反之请按"S"键。",21,¥ §,k,source/negative/9265.JPG,0,0,0,1,,,,,0,16,16,16,,,,,,,,,,,,,,,,,,,,,,,,,,,,,,,,,,47.395260600000256,47.395260600000256,,47.395260600000256,,47.395260600000256,,47.395260600000256,,47.88076309999997,47.89907289999974,,k,1,0.6264120000014373,,,,,,,,,,1,001,2022-11-20_23h24.18.685,Lab5_Emotional_NBack_Task,2022.2.4,164.75577427881203,
1-back,negative,practice_nag_1.xlsx,nag_1.xlsx,"1-back在本轮实验中，您需要牢牢记住当前的符号对的值，并判断是否与前一项相等。
请按任意键以继续
","1-back好了，准备开始正式测试了吗如果你看到的符号对和前一项相匹配，请在3.5秒内按下 "K"键。否则请按"S"键。如果你准备好了，请按任何键开始实验。","你看到的符号对和前一项相匹配吗？如果是，请按"K"键，反之请按"S"键。",21,§ £,s,source/negative/9046.JPG,0,0,0,1,,,,,0,17,17,17,,,,,,,,,,,,,,,,,,,,,,,,,,,,,,,,,,48.04389660000015,48.04389660000015,,48.04389660000015,,48.04389660000015,,48.04389660000015,,48.52941019999889,48.547494299999016,,s,1,0.5621112999997422,,,,,,,,,,1,001,2022-11-20_23h24.18.685,Lab5_Emotional_NBack_Task,2022.2.4,164.75577427881203,
1-back,negative,practice_nag_1.xlsx,nag_1.xlsx,"1-back在本轮实验中，您需要牢牢记住当前的符号对的值，并判断是否与前一项相等。
请按任意键以继续
","1-back好了，准备开始正式测试了吗如果你看到的符号对和前一项相匹配，请在3.5秒内按下 "K"键。否则请按"S"键。如果你准备好了，请按任何键开始实验。","你看到的符号对和前一项相匹配吗？如果是，请按"K"键，反之请按"S"键。",21,§ £,k,source/negative/9120.JPG,0,0,0,1,,,,,0,18,18,18,,,,,,,,,,,,,,,,,,,,,,,,,,,,,,,,,,48.62580750000052,48.62580750000052,,48.62580750000052,,48.62580750000052,,48.62580750000052,,49.11101869999948,49.12905479999972,,s,0,0.7425416000005498,,,,,,,,,,1,001,2022-11-20_23h24.18.685,Lab5_Emotional_NBack_Task,2022.2.4,164.75577427881203,
1-back,negative,practice_nag_1.xlsx,nag_1.xlsx,"1-back在本轮实验中，您需要牢牢记住当前的符号对的值，并判断是否与前一项相等。
请按任意键以继续
","1-back好了，准备开始正式测试了吗如果你看到的符号对和前一项相匹配，请在3.5秒内按下 "K"键。否则请按"S"键。如果你准备好了，请按任何键开始实验。","你看到的符号对和前一项相匹配吗？如果是，请按"K"键，反之请按"S"键。",21,§ £,k,source/negative/9600.JPG,0,0,0,1,,,,,0,19,19,19,,,,,,,,,,,,,,,,,,,,,,,,,,,,,,,,,,49.38926580000043,49.38926580000043,,49.38926580000043,,49.38926580000043,,49.38926580000043,,49.87454389999948,49.89272879999953,,s,0,0.7325354000004154,,,,,,,,,,1,001,2022-11-20_23h24.18.685,Lab5_Emotional_NBack_Task,2022.2.4,164.75577427881203,
1-back,negative,practice_nag_1.xlsx,nag_1.xlsx,"1-back在本轮实验中，您需要牢牢记住当前的符号对的值，并判断是否与前一项相等。
请按任意键以继续
","1-back好了，准备开始正式测试了吗如果你看到的符号对和前一项相匹配，请在3.5秒内按下 "K"键。否则请按"S"键。如果你准备好了，请按任何键开始实验。","你看到的符号对和前一项相匹配吗？如果是，请按"K"键，反之请按"S"键。",21,§ £,k,source/negative/3230.JPG,0,0,0,1,,,,,0,20,20,20,,,,,,,,,,,,,,,,,,,,,,,,,,,,,,,,,,50.140601799999786,50.140601799999786,,50.140601799999786,,50.140601799999786,,50.140601799999786,,50.6262014999993,50.64438469999914,,k,1,0.648667800001931,,,,,,,,,,1,001,2022-11-20_23h24.18.685,Lab5_Emotional_NBack_Task,2022.2.4,164.75577427881203,
1-back,neutral,practice_neu_1.xlsx,neu_1.xlsx,"1-back在本轮实验中，您需要牢牢记住当前的符号对的值，并判断是否与前一项相等。
请按任意键以继续
","1-back好了，准备开始正式测试了吗如果你看到的符号对和前一项相匹配，请在3.5秒内按下 "K"键。否则请按"S"键。如果你准备好了，请按任何键开始实验。","你看到的符号对和前一项相匹配吗？如果是，请按"K"键，反之请按"S"键。",21,§ £,None,source/neutral/2590.JPG,0,1,1,2,,,,,0,0,0,0,,,,,55.80171809999956,55.80171809999956,space,13.110538900000392,68.9228280999996,68.9228280999996,space,0.8306517000000895,82.77047110000058,82.77047110000058,69.78881840000031,82.77047110000058,69.78881840000031,82.77047110000058,69.78881840000031,82.77047110000058,69.78881840000031,80.1227158999991,80.1470264999989,73.2735563999995,s,1,83.18831349999891,84.1889689999989,0.40438470000117377,84.1889689999989,84.1889689999989,space,2.147723500000211,86.36415940000006,86.36415940000006,86.36415940000006,86.36415940000006,86.36415940000006,86.36415940000006,86.36415940000006,86.36415940000006,86.36415940000006,86.84331179999936,86.86780929999986,89.8549077000007,None,1,,50.81271729999935,50.81271729999935,None,,,,,,,1,001,2022-11-20_23h24.18.685,Lab5_Emotional_NBack_Task,2022.2.4,164.75577427881203,
1-back,neutral,practice_neu_1.xlsx,neu_1.xlsx,"1-back在本轮实验中，您需要牢牢记住当前的符号对的值，并判断是否与前一项相等。
请按任意键以继续
","1-back好了，准备开始正式测试了吗如果你看到的符号对和前一项相匹配，请在3.5秒内按下 "K"键。否则请按"S"键。如果你准备好了，请按任何键开始实验。","你看到的符号对和前一项相匹配吗？如果是，请按"K"键，反之请按"S"键。",21,§ £,k,source/neutral/1811.JPG,0,1,1,2,,,,,0,1,1,1,,,,,,,,,,,,,,,,,,,,,,,,,,,,,,,,,,89.8549077000007,89.8549077000007,,89.8549077000007,,89.8549077000007,,89.8549077000007,,90.3405789999997,90.35886149999897,,k,1,0.508485300000757,,,,,,,,,,1,001,2022-11-20_23h24.18.685,Lab5_Emotional_NBack_Task,2022.2.4,164.75577427881203,
1-back,neutral,practice_neu_1.xlsx,neu_1.xlsx,"1-back在本轮实验中，您需要牢牢记住当前的符号对的值，并判断是否与前一项相等。
请按任意键以继续
","1-back好了，准备开始正式测试了吗如果你看到的符号对和前一项相匹配，请在3.5秒内按下 "K"键。否则请按"S"键。如果你准备好了，请按任何键开始实验。","你看到的符号对和前一项相匹配吗？如果是，请按"K"键，反之请按"S"键。",21,§ £,k,source/neutral/6314.JPG,0,1,1,2,,,,,0,2,2,2,,,,,,,,,,,,,,,,,,,,,,,,,,,,,,,,,,90.38229709999905,90.38229709999905,,90.38229709999905,,90.38229709999905,,90.38229709999905,,90.86820559999978,90.8863010999994,,k,1,0.8492344000005687,,,,,,,,,,1,001,2022-11-20_23h24.18.685,Lab5_Emotional_NBack_Task,2022.2.4,164.75577427881203,
1-back,neutral,practice_neu_1.xlsx,neu_1.xlsx,"1-back在本轮实验中，您需要牢牢记住当前的符号对的值，并判断是否与前一项相等。
请按任意键以继续
","1-back好了，准备开始正式测试了吗如果你看到的符号对和前一项相匹配，请在3.5秒内按下 "K"键。否则请按"S"键。如果你准备好了，请按任何键开始实验。","你看到的符号对和前一项相匹配吗？如果是，请按"K"键，反之请按"S"键。",21,§ £,k,source/neutral/7180.JPG,0,1,1,2,,,,,0,3,3,3,,,,,,,,,,,,,,,,,,,,,,,,,,,,,,,,,,91.24902329999895,91.24902329999895,,91.24902329999895,,91.24902329999895,,91.24902329999895,,91.73442090000026,91.7525628000003,,k,1,0.754995900000722,,,,,,,,,,1,001,2022-11-20_23h24.18.685,Lab5_Emotional_NBack_Task,2022.2.4,164.75577427881203,
1-back,neutral,practice_neu_1.xlsx,neu_1.xlsx,"1-back在本轮实验中，您需要牢牢记住当前的符号对的值，并判断是否与前一项相等。
请按任意键以继续
","1-back好了，准备开始正式测试了吗如果你看到的符号对和前一项相匹配，请在3.5秒内按下 "K"键。否则请按"S"键。如果你准备好了，请按任何键开始实验。","你看到的符号对和前一项相匹配吗？如果是，请按"K"键，反之请按"S"键。",21,¤ #,s,source/neutral/2165.JPG,0,1,1,2,,,,,0,4,4,4,,,,,,,,,,,,,,,,,,,,,,,,,,,,,,,,,,92.02498150000065,92.02498150000065,,92.02498150000065,,92.02498150000065,,92.02498150000065,,92.50969280000027,92.52781289999984,,s,1,0.7051644000002852,,,,,,,,,,1,001,2022-11-20_23h24.18.685,Lab5_Emotional_NBack_Task,2022.2.4,164.75577427881203,
1-back,neutral,practice_neu_1.xlsx,neu_1.xlsx,"1-back在本轮实验中，您需要牢牢记住当前的符号对的值，并判断是否与前一项相等。
请按任意键以继续
","1-back好了，准备开始正式测试了吗如果你看到的符号对和前一项相匹配，请在3.5秒内按下 "K"键。否则请按"S"键。如果你准备好了，请按任何键开始实验。","你看到的符号对和前一项相匹配吗？如果是，请按"K"键，反之请按"S"键。",21,¤ #,k,source/neutral/4640.JPG,0,1,1,2,,,,,0,5,5,5,,,,,,,,,,,,,,,,,,,,,,,,,,,,,,,,,,92.75236720000066,92.75236720000066,,92.75236720000066,,92.75236720000066,,92.75236720000066,,93.23740109999926,93.2559242999996,,k,1,0.7034232000005431,,,,,,,,,,1,001,2022-11-20_23h24.18.685,Lab5_Emotional_NBack_Task,2022.2.4,164.75577427881203,
1-back,neutral,practice_neu_1.xlsx,neu_1.xlsx,"1-back在本轮实验中，您需要牢牢记住当前的符号对的值，并判断是否与前一项相等。
请按任意键以继续
","1-back好了，准备开始正式测试了吗如果你看到的符号对和前一项相匹配，请在3.5秒内按下 "K"键。否则请按"S"键。如果你准备好了，请按任何键开始实验。","你看到的符号对和前一项相匹配吗？如果是，请按"K"键，反之请按"S"键。",21,¤ #,k,source/neutral/6910.JPG,0,1,1,2,,,,,0,6,6,6,,,,,,,,,,,,,,,,,,,,,,,,,,,,,,,,,,93.47377659999984,93.47377659999984,,93.47377659999984,,93.47377659999984,,93.47377659999984,,93.95842730000004,93.97691049999958,,k,1,0.6581051000011939,,,,,,,,,,1,001,2022-11-20_23h24.18.685,Lab5_Emotional_NBack_Task,2022.2.4,164.75577427881203,
1-back,neutral,practice_neu_1.xlsx,neu_1.xlsx,"1-back在本轮实验中，您需要牢牢记住当前的符号对的值，并判断是否与前一项相等。
请按任意键以继续
","1-back好了，准备开始正式测试了吗如果你看到的符号对和前一项相匹配，请在3.5秒内按下 "K"键。否则请按"S"键。如果你准备好了，请按任何键开始实验。","你看到的符号对和前一项相匹配吗？如果是，请按"K"键，反之请按"S"键。",21,¤ #,k,source/neutral/2480.JPG,0,1,1,2,,,,,0,7,7,7,,,,,,,,,,,,,,,,,,,,,,,,,,,,,,,,,,94.15200399999958,94.15200399999958,,94.15200399999958,,94.15200399999958,,94.15200399999958,,94.63741730000038,94.65581030000067,,k,1,0.6711199000001216,,,,,,,,,,1,001,2022-11-20_23h24.18.685,Lab5_Emotional_NBack_Task,2022.2.4,164.75577427881203,
1-back,neutral,practice_neu_1.xlsx,neu_1.xlsx,"1-back在本轮实验中，您需要牢牢记住当前的符号对的值，并判断是否与前一项相等。
请按任意键以继续
","1-back好了，准备开始正式测试了吗如果你看到的符号对和前一项相匹配，请在3.5秒内按下 "K"键。否则请按"S"键。如果你准备好了，请按任何键开始实验。","你看到的符号对和前一项相匹配吗？如果是，请按"K"键，反之请按"S"键。",21,§ £,s,source/neutral/1910.JPG,0,1,1,2,,,,,0,8,8,8,,,,,,,,,,,,,,,,,,,,,,,,,,,,,,,,,,94.84295199999906,94.84295199999906,,94.84295199999906,,94.84295199999906,,94.84295199999906,,95.32808639999894,95.34630649999963,,s,1,0.6862760000003618,,,,,,,,,,1,001,2022-11-20_23h24.18.685,Lab5_Emotional_NBack_Task,2022.2.4,164.75577427881203,
1-back,neutral,practice_neu_1.xlsx,neu_1.xlsx,"1-back在本轮实验中，您需要牢牢记住当前的符号对的值，并判断是否与前一项相等。
请按任意键以继续
","1-back好了，准备开始正式测试了吗如果你看到的符号对和前一项相匹配，请在3.5秒内按下 "K"键。否则请按"S"键。如果你准备好了，请按任何键开始实验。","你看到的符号对和前一项相匹配吗？如果是，请按"K"键，反之请按"S"键。",21,¥ §,s,source/neutral/4613.JPG,0,1,1,2,,,,,0,9,9,9,,,,,,,,,,,,,,,,,,,,,,,,,,,,,,,,,,95.5525276999997,95.5525276999997,,95.5525276999997,,95.5525276999997,,95.5525276999997,,96.0372755999997,96.05551539999942,,s,1,1.0233387000025687,,,,,,,,,,1,001,2022-11-20_23h24.18.685,Lab5_Emotional_NBack_Task,2022.2.4,164.75577427881203,
1-back,neutral,practice_neu_1.xlsx,neu_1.xlsx,"1-back在本轮实验中，您需要牢牢记住当前的符号对的值，并判断是否与前一项相等。
请按任意键以继续
","1-back好了，准备开始正式测试了吗如果你看到的符号对和前一项相匹配，请在3.5秒内按下 "K"键。否则请按"S"键。如果你准备好了，请按任何键开始实验。","你看到的符号对和前一项相匹配吗？如果是，请按"K"键，反之请按"S"键。",21,§ £,s,source/neutral/5940.JPG,0,1,1,2,,,,,0,10,10,10,,,,,,,,,,,,,,,,,,,,,,,,,,,,,,,,,,96.5940284999997,96.5940284999997,,96.5940284999997,,96.5940284999997,,96.5940284999997,,97.08004049999909,97.09800779999932,,k,0,0.7854525000020658,,,,,,,,,,1,001,2022-11-20_23h24.18.685,Lab5_Emotional_NBack_Task,2022.2.4,164.75577427881203,
1-back,neutral,practice_neu_1.xlsx,neu_1.xlsx,"1-back在本轮实验中，您需要牢牢记住当前的符号对的值，并判断是否与前一项相等。
请按任意键以继续
","1-back好了，准备开始正式测试了吗如果你看到的符号对和前一项相匹配，请在3.5秒内按下 "K"键。否则请按"S"键。如果你准备好了，请按任何键开始实验。","你看到的符号对和前一项相匹配吗？如果是，请按"K"键，反之请按"S"键。",21,§ £,k,source/neutral/1942.JPG,0,1,1,2,,,,,0,11,11,11,,,,,,,,,,,,,,,,,,,,,,,,,,,,,,,,,,97.40601020000031,97.40601020000031,,97.40601020000031,,97.40601020000031,,97.40601020000031,,97.88575540000056,97.91002689999914,,k,1,0.7266202000009798,,,,,,,,,,1,001,2022-11-20_23h24.18.685,Lab5_Emotional_NBack_Task,2022.2.4,164.75577427881203,
1-back,neutral,practice_neu_1.xlsx,neu_1.xlsx,"1-back在本轮实验中，您需要牢牢记住当前的符号对的值，并判断是否与前一项相等。
请按任意键以继续
","1-back好了，准备开始正式测试了吗如果你看到的符号对和前一项相匹配，请在3.5秒内按下 "K"键。否则请按"S"键。如果你准备好了，请按任何键开始实验。","你看到的符号对和前一项相匹配吗？如果是，请按"K"键，反之请按"S"键。",21,§ ‡,s,source/neutral/9621.JPG,0,1,1,2,,,,,0,12,12,12,,,,,,,,,,,,,,,,,,,,,,,,,,,,,,,,,,98.15161230000012,98.15161230000012,,98.15161230000012,,98.15161230000012,,98.15161230000012,,98.6374197999994,98.65578119999918,,s,1,0.6651407000008476,,,,,,,,,,1,001,2022-11-20_23h24.18.685,Lab5_Emotional_NBack_Task,2022.2.4,164.75577427881203,
1-back,neutral,practice_neu_1.xlsx,neu_1.xlsx,"1-back在本轮实验中，您需要牢牢记住当前的符号对的值，并判断是否与前一项相等。
请按任意键以继续
","1-back好了，准备开始正式测试了吗如果你看到的符号对和前一项相匹配，请在3.5秒内按下 "K"键。否则请按"S"键。如果你准备好了，请按任何键开始实验。","你看到的符号对和前一项相匹配吗？如果是，请按"K"键，反之请按"S"键。",21,§ ‡,k,source/neutral/7187.JPG,0,1,1,2,,,,,0,13,13,13,,,,,,,,,,,,,,,,,,,,,,,,,,,,,,,,,,98.83702110000013,98.83702110000013,,98.83702110000013,,98.83702110000013,,98.83702110000013,,99.32243050000034,99.34062900000026,,k,1,0.8051327000011952,,,,,,,,,,1,001,2022-11-20_23h24.18.685,Lab5_Emotional_NBack_Task,2022.2.4,164.75577427881203,
1-back,neutral,practice_neu_1.xlsx,neu_1.xlsx,"1-back在本轮实验中，您需要牢牢记住当前的符号对的值，并判断是否与前一项相等。
请按任意键以继续
","1-back好了，准备开始正式测试了吗如果你看到的符号对和前一项相匹配，请在3.5秒内按下 "K"键。否则请按"S"键。如果你准备好了，请按任何键开始实验。","你看到的符号对和前一项相匹配吗？如果是，请按"K"键，反之请按"S"键。",21,£ §,s,source/neutral/2276.JPG,0,1,1,2,,,,,0,14,14,14,,,,,,,,,,,,,,,,,,,,,,,,,,,,,,,,,,99.66128659999958,99.66128659999958,,99.66128659999958,,99.66128659999958,,99.66128659999958,,100.14646229999926,100.16435479999927,,s,1,0.7593561000012414,,,,,,,,,,1,001,2022-11-20_23h24.18.685,Lab5_Emotional_NBack_Task,2022.2.4,164.75577427881203,
1-back,neutral,practice_neu_1.xlsx,neu_1.xlsx,"1-back在本轮实验中，您需要牢牢记住当前的符号对的值，并判断是否与前一项相等。
请按任意键以继续
","1-back好了，准备开始正式测试了吗如果你看到的符号对和前一项相匹配，请在3.5秒内按下 "K"键。否则请按"S"键。如果你准备好了，请按任何键开始实验。","你看到的符号对和前一项相匹配吗？如果是，请按"K"键，反之请按"S"键。",21,£ §,k,source/neutral/2270.JPG,0,1,1,2,,,,,0,15,15,15,,,,,,,,,,,,,,,,,,,,,,,,,,,,,,,,,,100.44262010000057,100.44262010000057,,100.44262010000057,,100.44262010000057,,100.44262010000057,,100.92828439999903,100.94623110000066,,k,1,0.7248265000016545,,,,,,,,,,1,001,2022-11-20_23h24.18.685,Lab5_Emotional_NBack_Task,2022.2.4,164.75577427881203,
1-back,neutral,practice_neu_1.xlsx,neu_1.xlsx,"1-back在本轮实验中，您需要牢牢记住当前的符号对的值，并判断是否与前一项相等。
请按任意键以继续
","1-back好了，准备开始正式测试了吗如果你看到的符号对和前一项相匹配，请在3.5秒内按下 "K"键。否则请按"S"键。如果你准备好了，请按任何键开始实验。","你看到的符号对和前一项相匹配吗？如果是，请按"K"键，反之请按"S"键。",21,¥ §,s,source/neutral/8117.JPG,0,1,1,2,,,,,0,16,16,16,,,,,,,,,,,,,,,,,,,,,,,,,,,,,,,,,,101.1885129000002,101.1885129000002,,101.1885129000002,,101.1885129000002,,101.1885129000002,,101.67374960000052,101.6920396000005,,s,1,0.7667743000019982,,,,,,,,,,1,001,2022-11-20_23h24.18.685,Lab5_Emotional_NBack_Task,2022.2.4,164.75577427881203,
1-back,neutral,practice_neu_1.xlsx,neu_1.xlsx,"1-back在本轮实验中，您需要牢牢记住当前的符号对的值，并判断是否与前一项相等。
请按任意键以继续
","1-back好了，准备开始正式测试了吗如果你看到的符号对和前一项相匹配，请在3.5秒内按下 "K"键。否则请按"S"键。如果你准备好了，请按任何键开始实验。","你看到的符号对和前一项相匹配吗？如果是，请按"K"键，反之请按"S"键。",21,§ £,s,source/neutral/4005.JPG,0,1,1,2,,,,,0,17,17,17,,,,,,,,,,,,,,,,,,,,,,,,,,,,,,,,,,101.9759699999995,101.9759699999995,,101.9759699999995,,101.9759699999995,,101.9759699999995,,102.46162960000038,102.47987420000027,,s,1,0.9723987000015768,,,,,,,,,,1,001,2022-11-20_23h24.18.685,Lab5_Emotional_NBack_Task,2022.2.4,164.75577427881203,
1-back,neutral,practice_neu_1.xlsx,neu_1.xlsx,"1-back在本轮实验中，您需要牢牢记住当前的符号对的值，并判断是否与前一项相等。
请按任意键以继续
","1-back好了，准备开始正式测试了吗如果你看到的符号对和前一项相匹配，请在3.5秒内按下 "K"键。否则请按"S"键。如果你准备好了，请按任何键开始实验。","你看到的符号对和前一项相匹配吗？如果是，请按"K"键，反之请按"S"键。",21,§ £,k,source/neutral/7182.JPG,0,1,1,2,,,,,0,18,18,18,,,,,,,,,,,,,,,,,,,,,,,,,,,,,,,,,,102.97000149999985,102.97000149999985,,102.97000149999985,,102.97000149999985,,102.97000149999985,,103.45580270000028,103.4735428999993,,k,1,0.6958659000010812,,,,,,,,,,1,001,2022-11-20_23h24.18.685,Lab5_Emotional_NBack_Task,2022.2.4,164.75577427881203,
1-back,neutral,practice_neu_1.xlsx,neu_1.xlsx,"1-back在本轮实验中，您需要牢牢记住当前的符号对的值，并判断是否与前一项相等。
请按任意键以继续
","1-back好了，准备开始正式测试了吗如果你看到的符号对和前一项相匹配，请在3.5秒内按下 "K"键。否则请按"S"键。如果你准备好了，请按任何键开始实验。","你看到的符号对和前一项相匹配吗？如果是，请按"K"键，反之请按"S"键。",21,¥ §,s,source/neutral/9070.JPG,0,1,1,2,,,,,0,19,19,19,,,,,,,,,,,,,,,,,,,,,,,,,,,,,,,,,,103.68507899999895,103.68507899999895,,103.68507899999895,,103.68507899999895,,103.68507899999895,,104.170565299999,104.18898509999963,,s,1,0.8329867000011291,,,,,,,,,,1,001,2022-11-20_23h24.18.685,Lab5_Emotional_NBack_Task,2022.2.4,164.75577427881203,
1-back,neutral,practice_neu_1.xlsx,neu_1.xlsx,"1-back在本轮实验中，您需要牢牢记住当前的符号对的值，并判断是否与前一项相等。
请按任意键以继续
","1-back好了，准备开始正式测试了吗如果你看到的符号对和前一项相匹配，请在3.5秒内按下 "K"键。否则请按"S"键。如果你准备好了，请按任何键开始实验。","你看到的符号对和前一项相匹配吗？如果是，请按"K"键，反之请按"S"键。",21,§ £,s,source/neutral/6530.JPG,0,1,1,2,,,,,0,20,20,20,,,,,,,,,,,,,,,,,,,,,,,,,,,,,,,,,,104.53966589999982,104.53966589999982,,104.53966589999982,,104.53966589999982,,104.53966589999982,,105.02520550000008,105.04334170000038,,s,1,0.8842773000014859,,,,,,,,,,1,001,2022-11-20_23h24.18.685,Lab5_Emotional_NBack_Task,2022.2.4,164.75577427881203,
3-back,negative,practice_nag_3.xlsx,nag_3.xlsx,"3-back在本轮实验中，您需要牢牢记住当前的符号对的值，并判断是否与向前追溯的第三个符号对相等。按任意键以继续
","3-back好了，准备开始正式测试了吗如果你看到的符号对和之前第三项相匹配，请在3.5秒内按下 "K"键。否则请按"S"键。如果你准备好了，请按任何键开始实验。","你看到的符号对和前第3项相匹配吗？如果是，请按"K"键，反之请按"S"键。",23,§ £,None,source/negative/6250_1.JPG,0,2,2,7,,,,,0,0,0,0,,,,,110.45465279999917,110.45465279999917,space,1.1693088000010903,111.63108629999988,111.63108629999988,space,2.0237515999997413,131.2729027000005,131.2729027000005,120.6784673000002,131.2729027000005,120.6784673000002,131.2729027000005,120.6784673000002,131.2729027000005,120.6784673000002,131.75197900000057,131.77593979999983,124.17612499999996,s,0,132.0788623999997,133.09621189999962,0.7934342000025936,133.09621189999962,133.09621189999962,space,0.3705970000009984,133.49624550000044,133.49624550000044,133.49624550000044,133.49624550000044,133.49624550000044,133.49624550000044,133.49624550000044,133.49624550000044,133.49624550000044,133.97039589999986,134.00092229999973,136.98186650000025,None,1,,105.44259169999896,105.44259169999896,None,,,,,,,1,001,2022-11-20_23h24.18.685,Lab5_Emotional_NBack_Task,2022.2.4,164.75577427881203,
3-back,negative,practice_nag_3.xlsx,nag_3.xlsx,"3-back在本轮实验中，您需要牢牢记住当前的符号对的值，并判断是否与向前追溯的第三个符号对相等。按任意键以继续
","3-back好了，准备开始正式测试了吗如果你看到的符号对和之前第三项相匹配，请在3.5秒内按下 "K"键。否则请按"S"键。如果你准备好了，请按任何键开始实验。","你看到的符号对和前第3项相匹配吗？如果是，请按"K"键，反之请按"S"键。",23,¥ £,None,source/negative/3530.JPG,0,2,2,7,,,,,0,1,1,1,,,,,,,,,,,,,,,,,,,,,,,,,,,,,,,,,,136.98186650000025,136.98186650000025,136.98186650000025,136.98186650000025,136.98186650000025,136.98186650000025,136.98186650000025,136.98186650000025,136.98186650000025,137.46755889999986,137.48504089999915,140.4785957999993,None,1,,,,,,,,,,,1,001,2022-11-20_23h24.18.685,Lab5_Emotional_NBack_Task,2022.2.4,164.75577427881203,
3-back,negative,practice_nag_3.xlsx,nag_3.xlsx,"3-back在本轮实验中，您需要牢牢记住当前的符号对的值，并判断是否与向前追溯的第三个符号对相等。按任意键以继续
","3-back好了，准备开始正式测试了吗如果你看到的符号对和之前第三项相匹配，请在3.5秒内按下 "K"键。否则请按"S"键。如果你准备好了，请按任何键开始实验。","你看到的符号对和前第3项相匹配吗？如果是，请按"K"键，反之请按"S"键。",23,§ ‡,None,source/negative/9404.JPG,0,2,2,7,,,,,0,2,2,2,,,,,,,,,,,,,,,,,,,,,,,,,,,,,,,,,,140.4785957999993,140.4785957999993,140.4785957999993,140.4785957999993,140.4785957999993,140.4785957999993,140.4785957999993,140.4785957999993,140.4785957999993,140.96375570000055,140.98183749999953,143.98169339999913,None,1,,,,,,,,,,,1,001,2022-11-20_23h24.18.685,Lab5_Emotional_NBack_Task,2022.2.4,164.75577427881203,
3-back,negative,practice_nag_3.xlsx,nag_3.xlsx,"3-back在本轮实验中，您需要牢牢记住当前的符号对的值，并判断是否与向前追溯的第三个符号对相等。按任意键以继续
","3-back好了，准备开始正式测试了吗如果你看到的符号对和之前第三项相匹配，请在3.5秒内按下 "K"键。否则请按"S"键。如果你准备好了，请按任何键开始实验。","你看到的符号对和前第3项相匹配吗？如果是，请按"K"键，反之请按"S"键。",23,‡ #,s,source/negative/1945.JPG,0,2,2,7,,,,,0,3,3,3,,,,,,,,,,,,,,,,,,,,,,,,,,,,,,,,,,143.98169339999913,143.98169339999913,,143.98169339999913,,143.98169339999913,,143.98169339999913,,144.46109649999926,144.48516799999925,,s,1,0.7680554000016855,,,,,,,,,,1,001,2022-11-20_23h24.18.685,Lab5_Emotional_NBack_Task,2022.2.4,164.75577427881203,
3-back,negative,practice_nag_3.xlsx,nag_3.xlsx,"3-back在本轮实验中，您需要牢牢记住当前的符号对的值，并判断是否与向前追溯的第三个符号对相等。按任意键以继续
","3-back好了，准备开始正式测试了吗如果你看到的符号对和之前第三项相匹配，请在3.5秒内按下 "K"键。否则请按"S"键。如果你准备好了，请按任何键开始实验。","你看到的符号对和前第3项相匹配吗？如果是，请按"K"键，反之请按"S"键。",23,¥ £,k,source/negative/2752.JPG,0,2,2,7,,,,,0,4,4,4,,,,,,,,,,,,,,,,,,,,,,,,,,,,,,,,,,144.76940019999893,144.76940019999893,,144.76940019999893,,144.76940019999893,,144.76940019999893,,145.25485809999918,145.27309779999996,,k,1,0.9828325000016775,,,,,,,,,,1,001,2022-11-20_23h24.18.685,Lab5_Emotional_NBack_Task,2022.2.4,164.75577427881203,
3-back,negative,practice_nag_3.xlsx,nag_3.xlsx,"3-back在本轮实验中，您需要牢牢记住当前的符号对的值，并判断是否与向前追溯的第三个符号对相等。按任意键以继续
","3-back好了，准备开始正式测试了吗如果你看到的符号对和之前第三项相匹配，请在3.5秒内按下 "K"键。否则请按"S"键。如果你准备好了，请按任何键开始实验。","你看到的符号对和前第3项相匹配吗？如果是，请按"K"键，反之请按"S"键。",23,¥ £,s,source/negative/9571.JPG,0,2,2,7,,,,,0,5,5,5,,,,,,,,,,,,,,,,,,,,,,,,,,,,,,,,,,145.76948260000063,145.76948260000063,,145.76948260000063,,145.76948260000063,,145.76948260000063,,146.25466760000018,146.27299700000003,,s,1,1.4718109000023105,,,,,,,,,,1,001,2022-11-20_23h24.18.685,Lab5_Emotional_NBack_Task,2022.2.4,164.75577427881203,
3-back,negative,practice_nag_3.xlsx,nag_3.xlsx,"3-back在本轮实验中，您需要牢牢记住当前的符号对的值，并判断是否与向前追溯的第三个符号对相等。按任意键以继续
","3-back好了，准备开始正式测试了吗如果你看到的符号对和之前第三项相匹配，请在3.5秒内按下 "K"键。否则请按"S"键。如果你准备好了，请按任何键开始实验。","你看到的符号对和前第3项相匹配吗？如果是，请按"K"键，反之请按"S"键。",23,‡ #,k,source/negative/1052.JPG,0,2,2,7,,,,,0,6,6,6,,,,,,,,,,,,,,,,,,,,,,,,,,,,,,,,,,147.26003429999946,147.26003429999946,,147.26003429999946,,147.26003429999946,,147.26003429999946,,147.74585819999993,147.764006899999,,k,1,1.265015200000562,,,,,,,,,,1,001,2022-11-20_23h24.18.685,Lab5_Emotional_NBack_Task,2022.2.4,164.75577427881203,
3-back,negative,practice_nag_3.xlsx,nag_3.xlsx,"3-back在本轮实验中，您需要牢牢记住当前的符号对的值，并判断是否与向前追溯的第三个符号对相等。按任意键以继续
","3-back好了，准备开始正式测试了吗如果你看到的符号对和之前第三项相匹配，请在3.5秒内按下 "K"键。否则请按"S"键。如果你准备好了，请按任何键开始实验。","你看到的符号对和前第3项相匹配吗？如果是，请按"K"键，反之请按"S"键。",23,¥ §,s,source/negative/1110.JPG,0,2,2,7,,,,,0,7,7,7,,,,,,,,,,,,,,,,,,,,,,,,,,,,,,,,,,148.54457809999985,148.54457809999985,,148.54457809999985,,148.54457809999985,,148.54457809999985,,149.03060989999904,149.04858029999923,,s,1,1.2039629999999306,,,,,,,,,,1,001,2022-11-20_23h24.18.685,Lab5_Emotional_NBack_Task,2022.2.4,164.75577427881203,
3-back,negative,practice_nag_3.xlsx,nag_3.xlsx,"3-back在本轮实验中，您需要牢牢记住当前的符号对的值，并判断是否与向前追溯的第三个符号对相等。按任意键以继续
","3-back好了，准备开始正式测试了吗如果你看到的符号对和之前第三项相匹配，请在3.5秒内按下 "K"键。否则请按"S"键。如果你准备好了，请按任何键开始实验。","你看到的符号对和前第3项相匹配吗？如果是，请按"K"键，反之请按"S"键。",23,¥ £,k,source/negative/9622.JPG,0,2,2,7,,,,,0,8,8,8,,,,,,,,,,,,,,,,,,,,,,,,,,,,,,,,,,149.76942690000033,149.76942690000033,,149.76942690000033,,149.76942690000033,,149.76942690000033,,150.25471180000022,150.27275759999975,,s,0,1.6590725999994902,,,,,,,,,,1,001,2022-11-20_23h24.18.685,Lab5_Emotional_NBack_Task,2022.2.4,164.75577427881203,
3-back,negative,practice_nag_3.xlsx,nag_3.xlsx,"3-back在本轮实验中，您需要牢牢记住当前的符号对的值，并判断是否与向前追溯的第三个符号对相等。按任意键以继续
","3-back好了，准备开始正式测试了吗如果你看到的符号对和之前第三项相匹配，请在3.5秒内按下 "K"键。否则请按"S"键。如果你准备好了，请按任何键开始实验。","你看到的符号对和前第3项相匹配吗？如果是，请按"K"键，反之请按"S"键。",23,£ ‡,s,source/negative/3280.JPG,0,2,2,7,,,,,0,9,9,9,,,,,,,,,,,,,,,,,,,,,,,,,,,,,,,,,,151.44829170000048,151.44829170000048,,151.44829170000048,,151.44829170000048,,151.44829170000048,,151.93337690000044,151.9517094999992,,s,1,1.1427598000009311,,,,,,,,,,1,001,2022-11-20_23h24.18.685,Lab5_Emotional_NBack_Task,2022.2.4,164.75577427881203,
3-back,negative,practice_nag_3.xlsx,nag_3.xlsx,"3-back在本轮实验中，您需要牢牢记住当前的符号对的值，并判断是否与向前追溯的第三个符号对相等。按任意键以继续
","3-back好了，准备开始正式测试了吗如果你看到的符号对和之前第三项相匹配，请在3.5秒内按下 "K"键。否则请按"S"键。如果你准备好了，请按任何键开始实验。","你看到的符号对和前第3项相匹配吗？如果是，请按"K"键，反之请按"S"键。",23,¥ §,k,source/negative/6190.JPG,0,2,2,7,,,,,0,10,10,10,,,,,,,,,,,,,,,,,,,,,,,,,,,,,,,,,,152.6118604000003,152.6118604000003,,152.6118604000003,,152.6118604000003,,152.6118604000003,,153.0972787999999,153.11515019999933,,k,1,1.0107292000011512,,,,,,,,,,1,001,2022-11-20_23h24.18.685,Lab5_Emotional_NBack_Task,2022.2.4,164.75577427881203,
3-back,negative,practice_nag_3.xlsx,nag_3.xlsx,"3-back在本轮实验中，您需要牢牢记住当前的符号对的值，并判断是否与向前追溯的第三个符号对相等。按任意键以继续
","3-back好了，准备开始正式测试了吗如果你看到的符号对和之前第三项相匹配，请在3.5秒内按下 "K"键。否则请按"S"键。如果你准备好了，请按任何键开始实验。","你看到的符号对和前第3项相匹配吗？如果是，请按"K"键，反之请按"S"键。",23,§ £,s,source/negative/9560.JPG,0,2,2,7,,,,,0,11,11,11,,,,,,,,,,,,,,,,,,,,,,,,,,,,,,,,,,153.64193010000054,153.64193010000054,,153.64193010000054,,153.64193010000054,,153.64193010000054,,154.12729170000057,154.14523820000068,,k,0,1.6277050000007875,,,,,,,,,,1,001,2022-11-20_23h24.18.685,Lab5_Emotional_NBack_Task,2022.2.4,164.75577427881203,
3-back,negative,practice_nag_3.xlsx,nag_3.xlsx,"3-back在本轮实验中，您需要牢牢记住当前的符号对的值，并判断是否与向前追溯的第三个符号对相等。按任意键以继续
","3-back好了，准备开始正式测试了吗如果你看到的符号对和之前第三项相匹配，请在3.5秒内按下 "K"键。否则请按"S"键。如果你准备好了，请按任何键开始实验。","你看到的符号对和前第3项相匹配吗？如果是，请按"K"键，反之请按"S"键。",23,£ ‡,k,source/negative/1080.JPG,0,2,2,7,,,,,0,12,12,12,,,,,,,,,,,,,,,,,,,,,,,,,,,,,,,,,,155.2903000999995,155.2903000999995,,155.2903000999995,,155.2903000999995,,155.2903000999995,,155.77557200000047,155.79388160000053,,k,1,1.0718403999999282,,,,,,,,,,1,001,2022-11-20_23h24.18.685,Lab5_Emotional_NBack_Task,2022.2.4,164.75577427881203,
3-back,negative,practice_nag_3.xlsx,nag_3.xlsx,"3-back在本轮实验中，您需要牢牢记住当前的符号对的值，并判断是否与向前追溯的第三个符号对相等。按任意键以继续
","3-back好了，准备开始正式测试了吗如果你看到的符号对和之前第三项相匹配，请在3.5秒内按下 "K"键。否则请按"S"键。如果你准备好了，请按任何键开始实验。","你看到的符号对和前第3项相匹配吗？如果是，请按"K"键，反之请按"S"键。",23,§ ‡,s,source/negative/2750.JPG,0,2,2,7,,,,,0,13,13,13,,,,,,,,,,,,,,,,,,,,,,,,,,,,,,,,,,156.38127390000045,156.38127390000045,,156.38127390000045,,156.38127390000045,,156.38127390000045,,156.86667379999926,156.88497789999929,,s,1,1.6454062000011618,,,,,,,,,,1,001,2022-11-20_23h24.18.685,Lab5_Emotional_NBack_Task,2022.2.4,164.75577427881203,
3-back,negative,practice_nag_3.xlsx,nag_3.xlsx,"3-back在本轮实验中，您需要牢牢记住当前的符号对的值，并判断是否与向前追溯的第三个符号对相等。按任意键以继续
","3-back好了，准备开始正式测试了吗如果你看到的符号对和之前第三项相匹配，请在3.5秒内按下 "K"键。否则请按"S"键。如果你准备好了，请按任何键开始实验。","你看到的符号对和前第3项相匹配吗？如果是，请按"K"键，反之请按"S"键。",23,¥ §,s,source/negative/6313.JPG,0,2,2,7,,,,,0,14,14,14,,,,,,,,,,,,,,,,,,,,,,,,,,,,,,,,,,158.04840449999938,158.04840449999938,,158.04840449999938,,158.04840449999938,,158.04840449999938,,158.53345359999912,158.5515123999994,,k,0,1.3753866000006383,,,,,,,,,,1,001,2022-11-20_23h24.18.685,Lab5_Emotional_NBack_Task,2022.2.4,164.75577427881203,
3-back,negative,practice_nag_3.xlsx,nag_3.xlsx,"3-back在本轮实验中，您需要牢牢记住当前的符号对的值，并判断是否与向前追溯的第三个符号对相等。按任意键以继续
","3-back好了，准备开始正式测试了吗如果你看到的符号对和之前第三项相匹配，请在3.5秒内按下 "K"键。否则请按"S"键。如果你准备好了，请按任何键开始实验。","你看到的符号对和前第3项相匹配吗？如果是，请按"K"键，反之请按"S"键。",23,¥ §,s,source/negative/2692.JPG,0,2,2,7,,,,,0,15,15,15,,,,,,,,,,,,,,,,,,,,,,,,,,,,,,,,,,159.4419751000005,159.4419751000005,,159.4419751000005,,159.4419751000005,,159.4419751000005,,159.9272230000006,159.9452925000005,,k,0,1.2578009999997448,,,,,,,,,,1,001,2022-11-20_23h24.18.685,Lab5_Emotional_NBack_Task,2022.2.4,164.75577427881203,
3-back,negative,practice_nag_3.xlsx,nag_3.xlsx,"3-back在本轮实验中，您需要牢牢记住当前的符号对的值，并判断是否与向前追溯的第三个符号对相等。按任意键以继续
","3-back好了，准备开始正式测试了吗如果你看到的符号对和之前第三项相匹配，请在3.5秒内按下 "K"键。否则请按"S"键。如果你准备好了，请按任何键开始实验。","你看到的符号对和前第3项相匹配吗？如果是，请按"K"键，反之请按"S"键。",23,§ ‡,k,source/negative/6550.JPG,0,2,2,7,,,,,0,16,16,16,,,,,,,,,,,,,,,,,,,,,,,,,,,,,,,,,,160.7204870000005,160.7204870000005,,160.7204870000005,,160.7204870000005,,160.7204870000005,,161.20606159999988,161.2240927999992,,k,1,1.4312564000010752,,,,,,,,,,1,001,2022-11-20_23h24.18.685,Lab5_Emotional_NBack_Task,2022.2.4,164.75577427881203,
3-back,negative,practice_nag_3.xlsx,nag_3.xlsx,"3-back在本轮实验中，您需要牢牢记住当前的符号对的值，并判断是否与向前追溯的第三个符号对相等。按任意键以继续
","3-back好了，准备开始正式测试了吗如果你看到的符号对和之前第三项相匹配，请在3.5秒内按下 "K"键。否则请按"S"键。如果你准备好了，请按任何键开始实验。","你看到的符号对和前第3项相匹配吗？如果是，请按"K"键，反之请按"S"键。",23,§ £,s,source/negative/9582.JPG,0,2,2,7,,,,,0,17,17,17,,,,,,,,,,,,,,,,,,,,,,,,,,,,,,,,,,162.1752605999991,162.1752605999991,,162.1752605999991,,162.1752605999991,,162.1752605999991,,162.66050759999962,162.67867449999903,,k,0,1.1402255000011792,,,,,,,,,,1,001,2022-11-20_23h24.18.685,Lab5_Emotional_NBack_Task,2022.2.4,164.75577427881203,
3-back,negative,practice_nag_3.xlsx,nag_3.xlsx,"3-back在本轮实验中，您需要牢牢记住当前的符号对的值，并判断是否与向前追溯的第三个符号对相等。按任意键以继续
","3-back好了，准备开始正式测试了吗如果你看到的符号对和之前第三项相匹配，请在3.5秒内按下 "K"键。否则请按"S"键。如果你准备好了，请按任何键开始实验。","你看到的符号对和前第3项相匹配吗？如果是，请按"K"键，反之请按"S"键。",23,¥ §,k,source/negative/9620.JPG,0,2,2,7,,,,,0,18,18,18,,,,,,,,,,,,,,,,,,,,,,,,,,,,,,,,,,163.3386704000004,163.3386704000004,,163.3386704000004,,163.3386704000004,,163.3386704000004,,163.8242967999995,163.84228839999923,,s,0,0.9056194000022515,,,,,,,,,,1,001,2022-11-20_23h24.18.685,Lab5_Emotional_NBack_Task,2022.2.4,164.75577427881203,
3-back,negative,practice_nag_3.xlsx,nag_3.xlsx,"3-back在本轮实验中，您需要牢牢记住当前的符号对的值，并判断是否与向前追溯的第三个符号对相等。按任意键以继续
","3-back好了，准备开始正式测试了吗如果你看到的符号对和之前第三项相匹配，请在3.5秒内按下 "K"键。否则请按"S"键。如果你准备好了，请按任何键开始实验。","你看到的符号对和前第3项相匹配吗？如果是，请按"K"键，反之请按"S"键。",23,¥ £,s,source/negative/3550.JPG,0,2,2,7,,,,,0,19,19,19,,,,,,,,,,,,,,,,,,,,,,,,,,,,,,,,,,164.2656781000005,164.2656781000005,,164.2656781000005,,164.2656781000005,,164.2656781000005,,164.75146929999937,164.76924689999942,,k,0,1.0935284000024694,,,,,,,,,,1,001,2022-11-20_23h24.18.685,Lab5_Emotional_NBack_Task,2022.2.4,164.75577427881203,
3-back,negative,practice_nag_3.xlsx,nag_3.xlsx,"3-back在本轮实验中，您需要牢牢记住当前的符号对的值，并判断是否与向前追溯的第三个符号对相等。按任意键以继续
","3-back好了，准备开始正式测试了吗如果你看到的符号对和之前第三项相匹配，请在3.5秒内按下 "K"键。否则请按"S"键。如果你准备好了，请按任何键开始实验。","你看到的符号对和前第3项相匹配吗？如果是，请按"K"键，反之请按"S"键。",23,§ £,k,source/negative/6360.JPG,0,2,2,7,,,,,0,20,20,20,,,,,,,,,,,,,,,,,,,,,,,,,,,,,,,,,,165.38111109999954,165.38111109999954,,165.38111109999954,,165.38111109999954,,165.38111109999954,,165.86650360000021,165.88469059999989,,s,0,1.6683765000016137,,,,,,,,,,1,001,2022-11-20_23h24.18.685,Lab5_Emotional_NBack_Task,2022.2.4,164.75577427881203,
3-back,negative,practice_nag_3.xlsx,nag_3.xlsx,"3-back在本轮实验中，您需要牢牢记住当前的符号对的值，并判断是否与向前追溯的第三个符号对相等。按任意键以继续
","3-back好了，准备开始正式测试了吗如果你看到的符号对和之前第三项相匹配，请在3.5秒内按下 "K"键。否则请按"S"键。如果你准备好了，请按任何键开始实验。","你看到的符号对和前第3项相匹配吗？如果是，请按"K"键，反之请按"S"键。",23,¥ §,k,source/negative/6570.JPG,0,2,2,7,,,,,0,21,21,21,,,,,,,,,,,,,,,,,,,,,,,,,,,,,,,,,,167.07191919999968,167.07191919999968,,167.07191919999968,,167.07191919999968,,167.07191919999968,,167.5571930999995,167.57544140000027,,k,1,1.1955305000010412,,,,,,,,,,1,001,2022-11-20_23h24.18.685,Lab5_Emotional_NBack_Task,2022.2.4,164.75577427881203,
3-back,negative,practice_nag_3.xlsx,nag_3.xlsx,"3-back在本轮实验中，您需要牢牢记住当前的符号对的值，并判断是否与向前追溯的第三个符号对相等。按任意键以继续
","3-back好了，准备开始正式测试了吗如果你看到的符号对和之前第三项相匹配，请在3.5秒内按下 "K"键。否则请按"S"键。如果你准备好了，请按任何键开始实验。","你看到的符号对和前第3项相匹配吗？如果是，请按"K"键，反之请按"S"键。",23,¥ £,k,source/negative/9912.JPG,0,2,2,7,,,,,0,22,22,22,,,,,,,,,,,,,,,,,,,,,,,,,,,,,,,,,,168.29013189999932,168.29013189999932,,168.29013189999932,,168.29013189999932,,168.29013189999932,,168.77557419999903,168.7937208000003,,s,0,1.9475626000003103,,,,,,,,,,1,001,2022-11-20_23h24.18.685,Lab5_Emotional_NBack_Task,2022.2.4,164.75577427881203,
2-back,positive,practice_pos_2.xlsx,pos_2.xlsx,"2-back在本轮实验中，您需要牢牢记住当前的符号对的值，并判断是否与向前追溯的第二项符号对相等。按任意键以继续
","2-back好了，准备开始正式测试了吗如果你看到的符号对和之前第二项相匹配，请在3.5秒内按下 "K"键。否则请按"S"键。如果你准备好了，请按任何键开始实验。","你看到的符号对和向前追溯2项的符号相匹配吗？如果是，请按"K"键，反之请按"S"键。",22,¥ §,None,source/positive/8031.JPG,0,3,3,3,,,,,0,0,0,0,,,,,175.08325259999947,175.08325259999947,space,0.7719969000008859,175.86624370000027,175.86624370000027,space,0.5204650000014226,191.45943479999914,191.45943479999914,179.9080054999995,191.45943479999914,179.9080054999995,191.45943479999914,179.9080054999995,191.45943479999914,179.9080054999995,191.94508339999993,191.96351709999908,183.4050117000006,s,1,192.16219640000054,193.17454700000053,0.6901317000010749,193.17454700000053,193.17454700000053,space,0.7133685000007972,193.92574149999928,193.92574149999928,193.92574149999928,193.92574149999928,193.92574149999928,193.92574149999928,193.92574149999928,193.92574149999928,193.92574149999928,194.39330859999973,194.42970109999987,197.40486839999903,None,1,,170.2654631000005,170.2654631000005,space,4.799182500000825,,,,,,1,001,2022-11-20_23h24.18.685,Lab5_Emotional_NBack_Task,2022.2.4,164.75577427881203,
2-back,positive,practice_pos_2.xlsx,pos_2.xlsx,"2-back在本轮实验中，您需要牢牢记住当前的符号对的值，并判断是否与向前追溯的第二项符号对相等。按任意键以继续
","2-back好了，准备开始正式测试了吗如果你看到的符号对和之前第二项相匹配，请在3.5秒内按下 "K"键。否则请按"S"键。如果你准备好了，请按任何键开始实验。","你看到的符号对和向前追溯2项的符号相匹配吗？如果是，请按"K"键，反之请按"S"键。",22,§ ‡,None,source/positive/5200.JPG,0,3,3,3,,,,,0,1,1,1,,,,,,,,,,,,,,,,,,,,,,,,,,,,,,,,,,197.40486839999903,197.40486839999903,197.40486839999903,197.40486839999903,197.40486839999903,197.40486839999903,197.40486839999903,197.40486839999903,197.40486839999903,197.8904548999999,197.90827340000033,200.90192190000016,None,1,,,,,,,,,,,1,001,2022-11-20_23h24.18.685,Lab5_Emotional_NBack_Task,2022.2.4,164.75577427881203,
2-back,positive,practice_pos_2.xlsx,pos_2.xlsx,"2-back在本轮实验中，您需要牢牢记住当前的符号对的值，并判断是否与向前追溯的第二项符号对相等。按任意键以继续
","2-back好了，准备开始正式测试了吗如果你看到的符号对和之前第二项相匹配，请在3.5秒内按下 "K"键。否则请按"S"键。如果你准备好了，请按任何键开始实验。","你看到的符号对和向前追溯2项的符号相匹配吗？如果是，请按"K"键，反之请按"S"键。",22,¥ §,k,source/positive/5626.JPG,0,3,3,3,,,,,0,2,2,2,,,,,,,,,,,,,,,,,,,,,,,,,,,,,,,,,,200.90192190000016,200.90192190000016,,200.90192190000016,,200.90192190000016,,200.90192190000016,,201.38712149999992,201.40527230000043,,k,1,0.5320760000013252,,,,,,,,,,1,001,2022-11-20_23h24.18.685,Lab5_Emotional_NBack_Task,2022.2.4,164.75577427881203,
2-back,positive,practice_pos_2.xlsx,pos_2.xlsx,"2-back在本轮实验中，您需要牢牢记住当前的符号对的值，并判断是否与向前追溯的第二项符号对相等。按任意键以继续
","2-back好了，准备开始正式测试了吗如果你看到的符号对和之前第二项相匹配，请在3.5秒内按下 "K"键。否则请按"S"键。如果你准备好了，请按任何键开始实验。","你看到的符号对和向前追溯2项的符号相匹配吗？如果是，请按"K"键，反之请按"S"键。",22,§ £,s,source/positive/7475.JPG,0,3,3,3,,,,,0,3,3,3,,,,,,,,,,,,,,,,,,,,,,,,,,,,,,,,,,201.4533625999993,201.4533625999993,,201.4533625999993,,201.4533625999993,,201.4533625999993,,201.9384511999997,201.956919799999,,k,0,0.9353059000022768,,,,,,,,,,1,001,2022-11-20_23h24.18.685,Lab5_Emotional_NBack_Task,2022.2.4,164.75577427881203,
2-back,positive,practice_pos_2.xlsx,pos_2.xlsx,"2-back在本轮实验中，您需要牢牢记住当前的符号对的值，并判断是否与向前追溯的第二项符号对相等。按任意键以继续
","2-back好了，准备开始正式测试了吗如果你看到的符号对和之前第二项相匹配，请在3.5秒内按下 "K"键。否则请按"S"键。如果你准备好了，请按任何键开始实验。","你看到的符号对和向前追溯2项的符号相匹配吗？如果是，请按"K"键，反之请按"S"键。",22,£ ‡,s,source/positive/2550.JPG,0,3,3,3,,,,,0,4,4,4,,,,,,,,,,,,,,,,,,,,,,,,,,,,,,,,,,202.41068919999998,202.41068919999998,,202.41068919999998,,202.41068919999998,,202.41068919999998,,202.8963287000006,202.91420619999917,,s,1,1.0304857000010088,,,,,,,,,,1,001,2022-11-20_23h24.18.685,Lab5_Emotional_NBack_Task,2022.2.4,164.75577427881203,
2-back,positive,practice_pos_2.xlsx,pos_2.xlsx,"2-back在本轮实验中，您需要牢牢记住当前的符号对的值，并判断是否与向前追溯的第二项符号对相等。按任意键以继续
","2-back好了，准备开始正式测试了吗如果你看到的符号对和之前第二项相匹配，请在3.5秒内按下 "K"键。否则请按"S"键。如果你准备好了，请按任何键开始实验。","你看到的符号对和向前追溯2项的符号相匹配吗？如果是，请按"K"键，反之请按"S"键。",22,£ ‡,s,source/positive/5750.JPG,0,3,3,3,,,,,0,5,5,5,,,,,,,,,,,,,,,,,,,,,,,,,,,,,,,,,,203.4592733999998,203.4592733999998,,203.4592733999998,,203.4592733999998,,203.4592733999998,,203.9447125000006,203.96285239999997,,s,1,1.6880949000005785,,,,,,,,,,1,001,2022-11-20_23h24.18.685,Lab5_Emotional_NBack_Task,2022.2.4,164.75577427881203,
2-back,positive,practice_pos_2.xlsx,pos_2.xlsx,"2-back在本轮实验中，您需要牢牢记住当前的符号对的值，并判断是否与向前追溯的第二项符号对相等。按任意键以继续
","2-back好了，准备开始正式测试了吗如果你看到的符号对和之前第二项相匹配，请在3.5秒内按下 "K"键。否则请按"S"键。如果你准备好了，请按任何键开始实验。","你看到的符号对和向前追溯2项的符号相匹配吗？如果是，请按"K"键，反之请按"S"键。",22,£ ‡,k,source/positive/5623.JPG,0,3,3,3,,,,,0,6,6,6,,,,,,,,,,,,,,,,,,,,,,,,,,,,,,,,,,205.16833469999983,205.16833469999983,,205.16833469999983,,205.16833469999983,,205.16833469999983,,205.6539697999997,205.67179009999927,,k,1,0.8474158000026364,,,,,,,,,,1,001,2022-11-20_23h24.18.685,Lab5_Emotional_NBack_Task,2022.2.4,164.75577427881203,
2-back,positive,practice_pos_2.xlsx,pos_2.xlsx,"2-back在本轮实验中，您需要牢牢记住当前的符号对的值，并判断是否与向前追溯的第二项符号对相等。按任意键以继续
","2-back好了，准备开始正式测试了吗如果你看到的符号对和之前第二项相匹配，请在3.5秒内按下 "K"键。否则请按"S"键。如果你准备好了，请按任何键开始实验。","你看到的符号对和向前追溯2项的符号相匹配吗？如果是，请按"K"键，反之请按"S"键。",22,¥ §,s,source/positive/5220.JPG,0,3,3,3,,,,,0,7,7,7,,,,,,,,,,,,,,,,,,,,,,,,,,,,,,,,,,206.03444490000038,206.03444490000038,,206.03444490000038,,206.03444490000038,,206.03444490000038,,206.52074240000002,206.5385881000002,,s,1,0.9948832999998558,,,,,,,,,,1,001,2022-11-20_23h24.18.685,Lab5_Emotional_NBack_Task,2022.2.4,164.75577427881203,
2-back,positive,practice_pos_2.xlsx,pos_2.xlsx,"2-back在本轮实验中，您需要牢牢记住当前的符号对的值，并判断是否与向前追溯的第二项符号对相等。按任意键以继续
","2-back好了，准备开始正式测试了吗如果你看到的符号对和之前第二项相匹配，请在3.5秒内按下 "K"键。否则请按"S"键。如果你准备好了，请按任何键开始实验。","你看到的符号对和向前追溯2项的符号相匹配吗？如果是，请按"K"键，反之请按"S"键。",22,§ £,s,source/positive/4572.JPG,0,3,3,3,,,,,0,8,8,8,,,,,,,,,,,,,,,,,,,,,,,,,,,,,,,,,,207.04700000000048,207.04700000000048,,207.04700000000048,,207.04700000000048,,207.04700000000048,,207.53237819999958,207.5507034000002,,s,1,1.6206504000019777,,,,,,,,,,1,001,2022-11-20_23h24.18.685,Lab5_Emotional_NBack_Task,2022.2.4,164.75577427881203,
2-back,positive,practice_pos_2.xlsx,pos_2.xlsx,"2-back在本轮实验中，您需要牢牢记住当前的符号对的值，并判断是否与向前追溯的第二项符号对相等。按任意键以继续
","2-back好了，准备开始正式测试了吗如果你看到的符号对和之前第二项相匹配，请在3.5秒内按下 "K"键。否则请按"S"键。如果你准备好了，请按任何键开始实验。","你看到的符号对和向前追溯2项的符号相匹配吗？如果是，请按"K"键，反之请按"S"键。",22,¥ §,k,source/positive/4220.JPG,0,3,3,3,,,,,0,9,9,9,,,,,,,,,,,,,,,,,,,,,,,,,,,,,,,,,,208.6895012999994,208.6895012999994,,208.6895012999994,,208.6895012999994,,208.6895012999994,,209.17493769999965,209.19302160000007,,k,1,0.8119709000020521,,,,,,,,,,1,001,2022-11-20_23h24.18.685,Lab5_Emotional_NBack_Task,2022.2.4,164.75577427881203,
2-back,positive,practice_pos_2.xlsx,pos_2.xlsx,"2-back在本轮实验中，您需要牢牢记住当前的符号对的值，并判断是否与向前追溯的第二项符号对相等。按任意键以继续
","2-back好了，准备开始正式测试了吗如果你看到的符号对和之前第二项相匹配，请在3.5秒内按下 "K"键。否则请按"S"键。如果你准备好了，请按任何键开始实验。","你看到的符号对和向前追溯2项的符号相匹配吗？如果是，请按"K"键，反之请按"S"键。",22,§ £,k,source/positive/1710.JPG,0,3,3,3,,,,,0,10,10,10,,,,,,,,,,,,,,,,,,,,,,,,,,,,,,,,,,209.5198767999991,209.5198767999991,,209.5198767999991,,209.5198767999991,,209.5198767999991,,210.00548949999938,210.02352599999904,,k,1,0.6661934000003384,,,,,,,,,,1,001,2022-11-20_23h24.18.685,Lab5_Emotional_NBack_Task,2022.2.4,164.75577427881203,
2-back,positive,practice_pos_2.xlsx,pos_2.xlsx,"2-back在本轮实验中，您需要牢牢记住当前的符号对的值，并判断是否与向前追溯的第二项符号对相等。按任意键以继续
","2-back好了，准备开始正式测试了吗如果你看到的符号对和之前第二项相匹配，请在3.5秒内按下 "K"键。否则请按"S"键。如果你准备好了，请按任何键开始实验。","你看到的符号对和向前追溯2项的符号相匹配吗？如果是，请按"K"键，反之请按"S"键。",22,¥ §,k,source/positive/1812.JPG,0,3,3,3,,,,,0,11,11,11,,,,,,,,,,,,,,,,,,,,,,,,,,,,,,,,,,210.2045268999991,210.2045268999991,,210.2045268999991,,210.2045268999991,,210.2045268999991,,210.68999629999962,210.70778489999975,,s,0,0.8906375000005937,,,,,,,,,,1,001,2022-11-20_23h24.18.685,Lab5_Emotional_NBack_Task,2022.2.4,164.75577427881203,
2-back,positive,practice_pos_2.xlsx,pos_2.xlsx,"2-back在本轮实验中，您需要牢牢记住当前的符号对的值，并判断是否与向前追溯的第二项符号对相等。按任意键以继续
","2-back好了，准备开始正式测试了吗如果你看到的符号对和之前第二项相匹配，请在3.5秒内按下 "K"键。否则请按"S"键。如果你准备好了，请按任何键开始实验。","你看到的符号对和向前追溯2项的符号相匹配吗？如果是，请按"K"键，反之请按"S"键。",22,§ ‡,s,source/positive/2092.JPG,0,3,3,3,,,,,0,12,12,12,,,,,,,,,,,,,,,,,,,,,,,,,,,,,,,,,,211.11370139999963,211.11370139999963,,211.11370139999963,,211.11370139999963,,211.11370139999963,,211.599220099999,211.61718199999996,,s,1,1.7162163000011788,,,,,,,,,,1,001,2022-11-20_23h24.18.685,Lab5_Emotional_NBack_Task,2022.2.4,164.75577427881203,
2-back,positive,practice_pos_2.xlsx,pos_2.xlsx,"2-back在本轮实验中，您需要牢牢记住当前的符号对的值，并判断是否与向前追溯的第二项符号对相等。按任意键以继续
","2-back好了，准备开始正式测试了吗如果你看到的符号对和之前第二项相匹配，请在3.5秒内按下 "K"键。否则请按"S"键。如果你准备好了，请按任何键开始实验。","你看到的符号对和向前追溯2项的符号相匹配吗？如果是，请按"K"键，反之请按"S"键。",22,¥ §,k,source/positive/2216.JPG,0,3,3,3,,,,,0,13,13,13,,,,,,,,,,,,,,,,,,,,,,,,,,,,,,,,,,212.85301099999924,212.85301099999924,,212.85301099999924,,212.85301099999924,,212.85301099999924,,213.33835030000046,213.3561721999995,,k,1,1.1121010000006208,,,,,,,,,,1,001,2022-11-20_23h24.18.685,Lab5_Emotional_NBack_Task,2022.2.4,164.75577427881203,
2-back,positive,practice_pos_2.xlsx,pos_2.xlsx,"2-back在本轮实验中，您需要牢牢记住当前的符号对的值，并判断是否与向前追溯的第二项符号对相等。按任意键以继续
","2-back好了，准备开始正式测试了吗如果你看到的符号对和之前第二项相匹配，请在3.5秒内按下 "K"键。否则请按"S"键。如果你准备好了，请按任何键开始实验。","你看到的符号对和向前追溯2项的符号相匹配吗？如果是，请按"K"键，反之请按"S"键。",22,¥ §,s,source/positive/7351.JPG,0,3,3,3,,,,,0,14,14,14,,,,,,,,,,,,,,,,,,,,,,,,,,,,,,,,,,213.9865590999998,213.9865590999998,,213.9865590999998,,213.9865590999998,,213.9865590999998,,214.47193999999945,214.4898914000005,,s,1,1.6279176000007283,,,,,,,,,,1,001,2022-11-20_23h24.18.685,Lab5_Emotional_NBack_Task,2022.2.4,164.75577427881203,
2-back,positive,practice_pos_2.xlsx,pos_2.xlsx,"2-back在本轮实验中，您需要牢牢记住当前的符号对的值，并判断是否与向前追溯的第二项符号对相等。按任意键以继续
","2-back好了，准备开始正式测试了吗如果你看到的符号对和之前第二项相匹配，请在3.5秒内按下 "K"键。否则请按"S"键。如果你准备好了，请按任何键开始实验。","你看到的符号对和向前追溯2项的符号相匹配吗？如果是，请按"K"键，反之请按"S"键。",22,¥ §,k,source/positive/1463.JPG,0,3,3,3,,,,,0,15,15,15,,,,,,,,,,,,,,,,,,,,,,,,,,,,,,,,,,215.63502469999912,215.63502469999912,,215.63502469999912,,215.63502469999912,,215.63502469999912,,216.1201089999995,216.1383537999991,,k,1,1.1020003000012366,,,,,,,,,,1,001,2022-11-20_23h24.18.685,Lab5_Emotional_NBack_Task,2022.2.4,164.75577427881203,
2-back,positive,practice_pos_2.xlsx,pos_2.xlsx,"2-back在本轮实验中，您需要牢牢记住当前的符号对的值，并判断是否与向前追溯的第二项符号对相等。按任意键以继续
","2-back好了，准备开始正式测试了吗如果你看到的符号对和之前第二项相匹配，请在3.5秒内按下 "K"键。否则请按"S"键。如果你准备好了，请按任何键开始实验。","你看到的符号对和向前追溯2项的符号相匹配吗？如果是，请按"K"键，反之请按"S"键。",22,¥ §,k,source/positive/2501.JPG,0,3,3,3,,,,,0,16,16,16,,,,,,,,,,,,,,,,,,,,,,,,,,,,,,,,,,216.75604419999945,216.75604419999945,,216.75604419999945,,216.75604419999945,,216.75604419999945,,217.24163419999968,217.25969049999912,,k,1,0.9027346000020771,,,,,,,,,,1,001,2022-11-20_23h24.18.685,Lab5_Emotional_NBack_Task,2022.2.4,164.75577427881203,
2-back,positive,practice_pos_2.xlsx,pos_2.xlsx,"2-back在本轮实验中，您需要牢牢记住当前的符号对的值，并判断是否与向前追溯的第二项符号对相等。按任意键以继续
","2-back好了，准备开始正式测试了吗如果你看到的符号对和之前第二项相匹配，请在3.5秒内按下 "K"键。否则请按"S"键。如果你准备好了，请按任何键开始实验。","你看到的符号对和向前追溯2项的符号相匹配吗？如果是，请按"K"键，反之请按"S"键。",22,§ £,s,source/positive/4770.JPG,0,3,3,3,,,,,0,17,17,17,,,,,,,,,,,,,,,,,,,,,,,,,,,,,,,,,,217.67737139999917,217.67737139999917,,217.67737139999917,,217.67737139999917,,217.67737139999917,,218.1626780000006,218.1809847000004,,s,1,1.0473885000010341,,,,,,,,,,1,001,2022-11-20_23h24.18.685,Lab5_Emotional_NBack_Task,2022.2.4,164.75577427881203,
2-back,positive,practice_pos_2.xlsx,pos_2.xlsx,"2-back在本轮实验中，您需要牢牢记住当前的符号对的值，并判断是否与向前追溯的第二项符号对相等。按任意键以继续
","2-back好了，准备开始正式测试了吗如果你看到的符号对和之前第二项相匹配，请在3.5秒内按下 "K"键。否则请按"S"键。如果你准备好了，请按任何键开始实验。","你看到的符号对和向前追溯2项的符号相匹配吗？如果是，请按"K"键，反之请按"S"键。",22,§ £,s,source/positive/7402.JPG,0,3,3,3,,,,,0,18,18,18,,,,,,,,,,,,,,,,,,,,,,,,,,,,,,,,,,218.74404959999993,218.74404959999993,,218.74404959999993,,218.74404959999993,,218.74404959999993,,219.22937929999898,219.2471888,,s,1,1.2468172999997478,,,,,,,,,,1,001,2022-11-20_23h24.18.685,Lab5_Emotional_NBack_Task,2022.2.4,164.75577427881203,
2-back,positive,practice_pos_2.xlsx,pos_2.xlsx,"2-back在本轮实验中，您需要牢牢记住当前的符号对的值，并判断是否与向前追溯的第二项符号对相等。按任意键以继续
","2-back好了，准备开始正式测试了吗如果你看到的符号对和之前第二项相匹配，请在3.5秒内按下 "K"键。否则请按"S"键。如果你准备好了，请按任何键开始实验。","你看到的符号对和向前追溯2项的符号相匹配吗？如果是，请按"K"键，反之请按"S"键。",22,‡ ¥,s,source/positive/1850.JPG,0,3,3,3,,,,,0,19,19,19,,,,,,,,,,,,,,,,,,,,,,,,,,,,,,,,,,220.0166382999996,220.0166382999996,,220.0166382999996,,220.0166382999996,,220.0166382999996,,220.49592719999964,220.5197688999997,,s,1,1.0652567000015551,,,,,,,,,,1,001,2022-11-20_23h24.18.685,Lab5_Emotional_NBack_Task,2022.2.4,164.75577427881203,
2-back,positive,practice_pos_2.xlsx,pos_2.xlsx,"2-back在本轮实验中，您需要牢牢记住当前的符号对的值，并判断是否与向前追溯的第二项符号对相等。按任意键以继续
","2-back好了，准备开始正式测试了吗如果你看到的符号对和之前第二项相匹配，请在3.5秒内按下 "K"键。否则请按"S"键。如果你准备好了，请按任何键开始实验。","你看到的符号对和向前追溯2项的符号相匹配吗？如果是，请按"K"键，反之请按"S"键。",22,§ £,k,source/positive/1303.JPG,0,3,3,3,,,,,0,20,20,20,,,,,,,,,,,,,,,,,,,,,,,,,,,,,,,,,,221.10178669999914,221.10178669999914,,221.10178669999914,,221.10178669999914,,221.10178669999914,,221.58694819999982,221.6049936999989,,k,1,0.8449272000016208,,,,,,,,,,1,001,2022-11-20_23h24.18.685,Lab5_Emotional_NBack_Task,2022.2.4,164.75577427881203,
2-back,positive,practice_pos_2.xlsx,pos_2.xlsx,"2-back在本轮实验中，您需要牢牢记住当前的符号对的值，并判断是否与向前追溯的第二项符号对相等。按任意键以继续
","2-back好了，准备开始正式测试了吗如果你看到的符号对和之前第二项相匹配，请在3.5秒内按下 "K"键。否则请按"S"键。如果你准备好了，请按任何键开始实验。","你看到的符号对和向前追溯2项的符号相匹配吗？如果是，请按"K"键，反之请按"S"键。",22,‡ ¥,k,source/positive/8021.JPG,0,3,3,3,,,,,0,21,21,21,,,,,,,,,,,,,,,,,,,,,,,,,,,,,,,,,,221.9681870000004,221.9681870000004,,221.9681870000004,,221.9681870000004,,221.9681870000004,,222.4532046000004,222.47170759999972,,k,1,1.295989300000656,,,,,,,,,,1,001,2022-11-20_23h24.18.685,Lab5_Emotional_NBack_Task,2022.2.4,164.75577427881203,
2-back,negative,practice_nag_2.xlsx,nag_2.xlsx,"2-back在本轮实验中，您需要牢牢记住当前的符号对的值，并判断是否与向前追溯的第二项符号对相等。按任意键以继续
","2-back好了，准备开始正式测试了吗如果你看到的符号对和之前第二项相匹配，请在3.5秒内按下 "K"键。否则请按"S"键。如果你准备好了，请按任何键开始实验。","你看到的符号对和向前追溯2项的符号相匹配吗？如果是，请按"K"键，反之请按"S"键。",22,§ £,None,source/negative/2730.JPG,0,4,4,4,,,,,0,0,0,0,,,,,228.27753370000028,228.27753370000028,space,2.580813800001124,230.86509619999924,230.86509619999924,space,0.6319695000020147,244.88921269999992,244.88921269999992,235.02263119999952,244.88921269999992,235.02263119999952,244.88921269999992,235.02263119999952,244.88921269999992,235.02263119999952,235.50210829999924,235.52628709999954,238.51373880000028,k,1,245.05261500000051,246.05337789999976,0.14738690000012866,246.05337789999976,246.05337789999976,space,0.8202153000020189,246.90085329999965,246.90085329999965,246.90085329999965,246.90085329999965,246.90085329999965,246.90085329999965,246.90085329999965,246.90085329999965,246.90085329999965,247.38027200000033,247.4048299999995,250.3918164000006,None,1,,223.28879749999942,223.28879749999942,None,,,,,,,1,001,2022-11-20_23h24.18.685,Lab5_Emotional_NBack_Task,2022.2.4,164.75577427881203,
2-back,negative,practice_nag_2.xlsx,nag_2.xlsx,"2-back在本轮实验中，您需要牢牢记住当前的符号对的值，并判断是否与向前追溯的第二项符号对相等。按任意键以继续
","2-back好了，准备开始正式测试了吗如果你看到的符号对和之前第二项相匹配，请在3.5秒内按下 "K"键。否则请按"S"键。如果你准备好了，请按任何键开始实验。","你看到的符号对和向前追溯2项的符号相匹配吗？如果是，请按"K"键，反之请按"S"键。",22,§ £,None,source/negative/3102.JPG,0,4,4,4,,,,,0,1,1,1,,,,,,,,,,,,,,,,,,,,,,,,,,,,,,,,,,250.3918164000006,250.3918164000006,250.3918164000006,250.3918164000006,250.3918164000006,250.3918164000006,250.3918164000006,250.3918164000006,250.3918164000006,250.87750509999933,250.8960246000006,253.88886029999958,None,1,,,,,,,,,,,1,001,2022-11-20_23h24.18.685,Lab5_Emotional_NBack_Task,2022.2.4,164.75577427881203,
2-back,negative,practice_nag_2.xlsx,nag_2.xlsx,"2-back在本轮实验中，您需要牢牢记住当前的符号对的值，并判断是否与向前追溯的第二项符号对相等。按任意键以继续
","2-back好了，准备开始正式测试了吗如果你看到的符号对和之前第二项相匹配，请在3.5秒内按下 "K"键。否则请按"S"键。如果你准备好了，请按任何键开始实验。","你看到的符号对和向前追溯2项的符号相匹配吗？如果是，请按"K"键，反之请按"S"键。",22,§ £,k,source/negative/3060.JPG,0,4,4,4,,,,,0,2,2,2,,,,,,,,,,,,,,,,,,,,,,,,,,,,,,,,,,253.88886029999958,253.88886029999958,,253.88886029999958,,253.88886029999958,,253.88886029999958,,,,,k,1,0.3386439000023529,,,,,,,,,,1,001,2022-11-20_23h24.18.685,Lab5_Emotional_NBack_Task,2022.2.4,164.75577427881203,
2-back,negative,practice_nag_2.xlsx,nag_2.xlsx,"2-back在本轮实验中，您需要牢牢记住当前的符号对的值，并判断是否与向前追溯的第二项符号对相等。按任意键以继续
","2-back好了，准备开始正式测试了吗如果你看到的符号对和之前第二项相匹配，请在3.5秒内按下 "K"键。否则请按"S"键。如果你准备好了，请按任何键开始实验。","你看到的符号对和向前追溯2项的符号相匹配吗？如果是，请按"K"键，反之请按"S"键。",22,§ £,k,source/negative/9045.JPG,0,4,4,4,,,,,0,3,3,3,,,,,,,,,,,,,,,,,,,,,,,,,,,,,,,,,,254.2465665999989,254.2465665999989,,254.2465665999989,,254.2465665999989,,254.2465665999989,,254.73140869999952,254.74958419999894,,k,1,0.6989501999996719,,,,,,,,,,1,001,2022-11-20_23h24.18.685,Lab5_Emotional_NBack_Task,2022.2.4,164.75577427881203,
2-back,negative,practice_nag_2.xlsx,nag_2.xlsx,"2-back在本轮实验中，您需要牢牢记住当前的符号对的值，并判断是否与向前追溯的第二项符号对相等。按任意键以继续
","2-back好了，准备开始正式测试了吗如果你看到的符号对和之前第二项相匹配，请在3.5秒内按下 "K"键。否则请按"S"键。如果你准备好了，请按任何键开始实验。","你看到的符号对和向前追溯2项的符号相匹配吗？如果是，请按"K"键，反之请按"S"键。",22,¤ #,s,source/negative/1200.JPG,0,4,4,4,,,,,0,4,4,4,,,,,,,,,,,,,,,,,,,,,,,,,,,,,,,,,,254.9675626999997,254.9675626999997,,254.9675626999997,,254.9675626999997,,254.9675626999997,,255.45298399999956,255.47128259999954,,s,1,0.8128873000005115,,,,,,,,,,1,001,2022-11-20_23h24.18.685,Lab5_Emotional_NBack_Task,2022.2.4,164.75577427881203,
2-back,negative,practice_nag_2.xlsx,nag_2.xlsx,"2-back在本轮实验中，您需要牢牢记住当前的符号对的值，并判断是否与向前追溯的第二项符号对相等。按任意键以继续
","2-back好了，准备开始正式测试了吗如果你看到的符号对和之前第二项相匹配，请在3.5秒内按下 "K"键。否则请按"S"键。如果你准备好了，请按任何键开始实验。","你看到的符号对和向前追溯2项的符号相匹配吗？如果是，请按"K"键，反之请按"S"键。",22,¤ #,s,source/negative/9594.JPG,0,4,4,4,,,,,0,5,5,5,,,,,,,,,,,,,,,,,,,,,,,,,,,,,,,,,,255.79724949999945,255.79724949999945,,255.79724949999945,,255.79724949999945,,255.79724949999945,,256.2833627,256.3015044999993,,k,0,0.8572064000018145,,,,,,,,,,1,001,2022-11-20_23h24.18.685,Lab5_Emotional_NBack_Task,2022.2.4,164.75577427881203,
2-back,negative,practice_nag_2.xlsx,nag_2.xlsx,"2-back在本轮实验中，您需要牢牢记住当前的符号对的值，并判断是否与向前追溯的第二项符号对相等。按任意键以继续
","2-back好了，准备开始正式测试了吗如果你看到的符号对和之前第二项相匹配，请在3.5秒内按下 "K"键。否则请按"S"键。如果你准备好了，请按任何键开始实验。","你看到的符号对和向前追溯2项的符号相匹配吗？如果是，请按"K"键，反之请按"S"键。",22,¤ #,k,source/negative/6312.JPG,0,4,4,4,,,,,0,6,6,6,,,,,,,,,,,,,,,,,,,,,,,,,,,,,,,,,,256.67645579999953,256.67645579999953,,256.67645579999953,,256.67645579999953,,256.67645579999953,,257.16218689999914,257.1797903000006,,k,1,0.7207317000011244,,,,,,,,,,1,001,2022-11-20_23h24.18.685,Lab5_Emotional_NBack_Task,2022.2.4,164.75577427881203,
2-back,negative,practice_nag_2.xlsx,nag_2.xlsx,"2-back在本轮实验中，您需要牢牢记住当前的符号对的值，并判断是否与向前追溯的第二项符号对相等。按任意键以继续
","2-back好了，准备开始正式测试了吗如果你看到的符号对和之前第二项相匹配，请在3.5秒内按下 "K"键。否则请按"S"键。如果你准备好了，请按任何键开始实验。","你看到的符号对和向前追溯2项的符号相匹配吗？如果是，请按"K"键，反之请按"S"键。",22,£ ‡,s,source/negative/9921.JPG,0,4,4,4,,,,,0,7,7,7,,,,,,,,,,,,,,,,,,,,,,,,,,,,,,,,,,257.4166576000007,257.4166576000007,,257.4166576000007,,257.4166576000007,,257.4166576000007,,257.90135120000014,257.9195942999995,,s,1,0.7855438000024151,,,,,,,,,,1,001,2022-11-20_23h24.18.685,Lab5_Emotional_NBack_Task,2022.2.4,164.75577427881203,
2-back,negative,practice_nag_2.xlsx,nag_2.xlsx,"2-back在本轮实验中，您需要牢牢记住当前的符号对的值，并判断是否与向前追溯的第二项符号对相等。按任意键以继续
","2-back好了，准备开始正式测试了吗如果你看到的符号对和之前第二项相匹配，请在3.5秒内按下 "K"键。否则请按"S"键。如果你准备好了，请按任何键开始实验。","你看到的符号对和向前追溯2项的符号相匹配吗？如果是，请按"K"键，反之请按"S"键。",22,§ £,s,source/negative/2100.JPG,0,4,4,4,,,,,0,8,8,8,,,,,,,,,,,,,,,,,,,,,,,,,,,,,,,,,,258.22223029999986,258.22223029999986,,258.22223029999986,,258.22223029999986,,258.22223029999986,,258.7075282000005,258.7257876999993,,k,0,0.7150776000016776,,,,,,,,,,1,001,2022-11-20_23h24.18.685,Lab5_Emotional_NBack_Task,2022.2.4,164.75577427881203,
2-back,negative,practice_nag_2.xlsx,nag_2.xlsx,"2-back在本轮实验中，您需要牢牢记住当前的符号对的值，并判断是否与向前追溯的第二项符号对相等。按任意键以继续
","2-back好了，准备开始正式测试了吗如果你看到的符号对和之前第二项相匹配，请在3.5秒内按下 "K"键。否则请按"S"键。如果你准备好了，请按任何键开始实验。","你看到的符号对和向前追溯2项的符号相匹配吗？如果是，请按"K"键，反之请按"S"键。",22,£ ‡,k,source/negative/9010.JPG,0,4,4,4,,,,,0,9,9,9,,,,,,,,,,,,,,,,,,,,,,,,,,,,,,,,,,258.95569930000056,258.95569930000056,,258.95569930000056,,258.95569930000056,,258.95569930000056,,259.4405425999994,259.459409699999,,k,1,1.3143358000015724,,,,,,,,,,1,001,2022-11-20_23h24.18.685,Lab5_Emotional_NBack_Task,2022.2.4,164.75577427881203,
2-back,negative,practice_nag_2.xlsx,nag_2.xlsx,"2-back在本轮实验中，您需要牢牢记住当前的符号对的值，并判断是否与向前追溯的第二项符号对相等。按任意键以继续
","2-back好了，准备开始正式测试了吗如果你看到的符号对和之前第二项相匹配，请在3.5秒内按下 "K"键。否则请按"S"键。如果你准备好了，请按任何键开始实验。","你看到的符号对和向前追溯2项的符号相匹配吗？如果是，请按"K"键，反之请按"S"键。",22,§ £,k,source/negative/1274.JPG,0,4,4,4,,,,,0,10,10,10,,,,,,,,,,,,,,,,,,,,,,,,,,,,,,,,,,260.2891091999991,260.2891091999991,,260.2891091999991,,260.2891091999991,,260.2891091999991,,260.77414359999966,260.79246609999973,,k,1,1.147166800001287,,,,,,,,,,1,001,2022-11-20_23h24.18.685,Lab5_Emotional_NBack_Task,2022.2.4,164.75577427881203,
2-back,negative,practice_nag_2.xlsx,nag_2.xlsx,"2-back在本轮实验中，您需要牢牢记住当前的符号对的值，并判断是否与向前追溯的第二项符号对相等。按任意键以继续
","2-back好了，准备开始正式测试了吗如果你看到的符号对和之前第二项相匹配，请在3.5秒内按下 "K"键。否则请按"S"键。如果你准备好了，请按任何键开始实验。","你看到的符号对和向前追溯2项的符号相匹配吗？如果是，请按"K"键，反之请按"S"键。",22,§ £,s,source/negative/3301.JPG,0,4,4,4,,,,,0,11,11,11,,,,,,,,,,,,,,,,,,,,,,,,,,,,,,,,,,261.4586882000003,261.4586882000003,,261.4586882000003,,261.4586882000003,,261.4586882000003,,261.9441384999991,261.96169120000013,,s,1,0.9311135000007198,,,,,,,,,,1,001,2022-11-20_23h24.18.685,Lab5_Emotional_NBack_Task,2022.2.4,164.75577427881203,
2-back,negative,practice_nag_2.xlsx,nag_2.xlsx,"2-back在本轮实验中，您需要牢牢记住当前的符号对的值，并判断是否与向前追溯的第二项符号对相等。按任意键以继续
","2-back好了，准备开始正式测试了吗如果你看到的符号对和之前第二项相匹配，请在3.5秒内按下 "K"键。否则请按"S"键。如果你准备好了，请按任何键开始实验。","你看到的符号对和向前追溯2项的符号相匹配吗？如果是，请按"K"键，反之请按"S"键。",22,§ ‡,s,source/negative/6260.JPG,0,4,4,4,,,,,0,12,12,12,,,,,,,,,,,,,,,,,,,,,,,,,,,,,,,,,,262.4095808000002,262.4095808000002,,262.4095808000002,,262.4095808000002,,262.4095808000002,,262.8954140000005,262.9132711000002,,k,0,0.8823066000022664,,,,,,,,,,1,001,2022-11-20_23h24.18.685,Lab5_Emotional_NBack_Task,2022.2.4,164.75577427881203,
2-back,negative,practice_nag_2.xlsx,nag_2.xlsx,"2-back在本轮实验中，您需要牢牢记住当前的符号对的值，并判断是否与向前追溯的第二项符号对相等。按任意键以继续
","2-back好了，准备开始正式测试了吗如果你看到的符号对和之前第二项相匹配，请在3.5秒内按下 "K"键。否则请按"S"键。如果你准备好了，请按任何键开始实验。","你看到的符号对和向前追溯2项的符号相匹配吗？如果是，请按"K"键，反之请按"S"键。",22,§ £,k,source/negative/3110.JPG,0,4,4,4,,,,,0,13,13,13,,,,,,,,,,,,,,,,,,,,,,,,,,,,,,,,,,263.3121618999994,263.3121618999994,,263.3121618999994,,263.3121618999994,,263.3121618999994,,263.79835599999933,263.81628269999965,,k,1,1.3147825000014564,,,,,,,,,,1,001,2022-11-20_23h24.18.685,Lab5_Emotional_NBack_Task,2022.2.4,164.75577427881203,
2-back,negative,practice_nag_2.xlsx,nag_2.xlsx,"2-back在本轮实验中，您需要牢牢记住当前的符号对的值，并判断是否与向前追溯的第二项符号对相等。按任意键以继续
","2-back好了，准备开始正式测试了吗如果你看到的符号对和之前第二项相匹配，请在3.5秒内按下 "K"键。否则请按"S"键。如果你准备好了，请按任何键开始实验。","你看到的符号对和向前追溯2项的符号相匹配吗？如果是，请按"K"键，反之请按"S"键。",22,§ ‡,k,source/negative/6836.JPG,0,4,4,4,,,,,0,14,14,14,,,,,,,,,,,,,,,,,,,,,,,,,,,,,,,,,,264.64574899999934,264.64574899999934,,264.64574899999934,,264.64574899999934,,264.64574899999934,,265.1318952999991,265.14950359999966,,s,0,0.9086628000022756,,,,,,,,,,1,001,2022-11-20_23h24.18.685,Lab5_Emotional_NBack_Task,2022.2.4,164.75577427881203,
2-back,negative,practice_nag_2.xlsx,nag_2.xlsx,"2-back在本轮实验中，您需要牢牢记住当前的符号对的值，并判断是否与向前追溯的第二项符号对相等。按任意键以继续
","2-back好了，准备开始正式测试了吗如果你看到的符号对和之前第二项相匹配，请在3.5秒内按下 "K"键。否则请按"S"键。如果你准备好了，请按任何键开始实验。","你看到的符号对和向前追溯2项的符号相匹配吗？如果是，请按"K"键，反之请按"S"键。",22,¥ §,s,source/negative/1051.JPG,0,4,4,4,,,,,0,15,15,15,,,,,,,,,,,,,,,,,,,,,,,,,,,,,,,,,,265.57295460000023,265.57295460000023,,265.57295460000023,,265.57295460000023,,265.57295460000023,,266.05879470000036,266.07699259999936,,k,0,0.7934684000010748,,,,,,,,,,1,001,2022-11-20_23h24.18.685,Lab5_Emotional_NBack_Task,2022.2.4,164.75577427881203,
2-back,negative,practice_nag_2.xlsx,nag_2.xlsx,"2-back在本轮实验中，您需要牢牢记住当前的符号对的值，并判断是否与向前追溯的第二项符号对相等。按任意键以继续
","2-back好了，准备开始正式测试了吗如果你看到的符号对和之前第二项相匹配，请在3.5秒内按下 "K"键。否则请按"S"键。如果你准备好了，请按任何键开始实验。","你看到的符号对和向前追溯2项的符号相匹配吗？如果是，请按"K"键，反之请按"S"键。",22,¥ §,s,source/negative/9102.JPG,0,4,4,4,,,,,0,16,16,16,,,,,,,,,,,,,,,,,,,,,,,,,,,,,,,,,,266.3857102999991,266.3857102999991,,266.3857102999991,,266.3857102999991,,266.3857102999991,,266.8706380000003,266.889138999999,,k,0,1.02014600000075,,,,,,,,,,1,001,2022-11-20_23h24.18.685,Lab5_Emotional_NBack_Task,2022.2.4,164.75577427881203,
2-back,negative,practice_nag_2.xlsx,nag_2.xlsx,"2-back在本轮实验中，您需要牢牢记住当前的符号对的值，并判断是否与向前追溯的第二项符号对相等。按任意键以继续
","2-back好了，准备开始正式测试了吗如果你看到的符号对和之前第二项相匹配，请在3.5秒内按下 "K"键。否则请按"S"键。如果你准备好了，请按任何键开始实验。","你看到的符号对和向前追溯2项的符号相匹配吗？如果是，请按"K"键，反之请按"S"键。",22,§ £,s,source/negative/2661.JPG,0,4,4,4,,,,,0,17,17,17,,,,,,,,,,,,,,,,,,,,,,,,,,,,,,,,,,267.42763019999984,267.42763019999984,,267.42763019999984,,267.42763019999984,,267.42763019999984,,267.91319789999943,267.93145770000046,,s,1,1.0001258000011148,,,,,,,,,,1,001,2022-11-20_23h24.18.685,Lab5_Emotional_NBack_Task,2022.2.4,164.75577427881203,
2-back,negative,practice_nag_2.xlsx,nag_2.xlsx,"2-back在本轮实验中，您需要牢牢记住当前的符号对的值，并判断是否与向前追溯的第二项符号对相等。按任意键以继续
","2-back好了，准备开始正式测试了吗如果你看到的符号对和之前第二项相匹配，请在3.5秒内按下 "K"键。否则请按"S"键。如果你准备好了，请按任何键开始实验。","你看到的符号对和向前追溯2项的符号相匹配吗？如果是，请按"K"键，反之请按"S"键。",22,§ £,s,source/negative/3180.JPG,0,4,4,4,,,,,0,18,18,18,,,,,,,,,,,,,,,,,,,,,,,,,,,,,,,,,,268.44613879999997,268.44613879999997,,268.44613879999997,,268.44613879999997,,268.44613879999997,,268.93152349999946,268.9494259000003,,k,0,1.2316457000015362,,,,,,,,,,1,001,2022-11-20_23h24.18.685,Lab5_Emotional_NBack_Task,2022.2.4,164.75577427881203,
2-back,negative,practice_nag_2.xlsx,nag_2.xlsx,"2-back在本轮实验中，您需要牢牢记住当前的符号对的值，并判断是否与向前追溯的第二项符号对相等。按任意键以继续
","2-back好了，准备开始正式测试了吗如果你看到的符号对和之前第二项相匹配，请在3.5秒内按下 "K"键。否则请按"S"键。如果你准备好了，请按任何键开始实验。","你看到的符号对和向前追溯2项的符号相匹配吗？如果是，请按"K"键，反之请按"S"键。",22,§ £,k,source/negative/9180.JPG,0,4,4,4,,,,,0,19,19,19,,,,,,,,,,,,,,,,,,,,,,,,,,,,,,,,,,269.7003420000001,269.7003420000001,,269.7003420000001,,269.7003420000001,,269.7003420000001,,270.1857994999991,270.20381909999924,,k,1,0.7512641000012081,,,,,,,,,,1,001,2022-11-20_23h24.18.685,Lab5_Emotional_NBack_Task,2022.2.4,164.75577427881203,
2-back,negative,practice_nag_2.xlsx,nag_2.xlsx,"2-back在本轮实验中，您需要牢牢记住当前的符号对的值，并判断是否与向前追溯的第二项符号对相等。按任意键以继续
","2-back好了，准备开始正式测试了吗如果你看到的符号对和之前第二项相匹配，请在3.5秒内按下 "K"键。否则请按"S"键。如果你准备好了，请按任何键开始实验。","你看到的符号对和向前追溯2项的符号相匹配吗？如果是，请按"K"键，反之请按"S"键。",22,§ £,k,source/negative/6510.JPG,0,4,4,4,,,,,0,20,20,20,,,,,,,,,,,,,,,,,,,,,,,,,,,,,,,,,,270.47035289999985,270.47035289999985,,270.47035289999985,,270.47035289999985,,270.47035289999985,,270.95546189999914,270.9734361999999,,k,1,0.9293514000019059,,,,,,,,,,1,001,2022-11-20_23h24.18.685,Lab5_Emotional_NBack_Task,2022.2.4,164.75577427881203,
2-back,negative,practice_nag_2.xlsx,nag_2.xlsx,"2-back在本轮实验中，您需要牢牢记住当前的符号对的值，并判断是否与向前追溯的第二项符号对相等。按任意键以继续
","2-back好了，准备开始正式测试了吗如果你看到的符号对和之前第二项相匹配，请在3.5秒内按下 "K"键。否则请按"S"键。如果你准备好了，请按任何键开始实验。","你看到的符号对和向前追溯2项的符号相匹配吗？如果是，请按"K"键，反之请按"S"键。",22,§ £,k,source/negative/9810.JPG,0,4,4,4,,,,,0,21,21,21,,,,,,,,,,,,,,,,,,,,,,,,,,,,,,,,,,271.4218784000004,271.4218784000004,,271.4218784000004,,271.4218784000004,,271.4218784000004,,271.906809099999,271.9253329000003,,k,1,0.7534258000014233,,,,,,,,,,1,001,2022-11-20_23h24.18.685,Lab5_Emotional_NBack_Task,2022.2.4,164.75577427881203,
1-back,positive,practice_pos_1.xlsx,pos_1.xlsx,"1-back在本轮实验中，您需要牢牢记住当前的符号对的值，并判断是否与前一项相等。
请按任意键以继续
","1-back好了，准备开始正式测试了吗如果你看到的符号对和前一项相匹配，请在3.5秒内按下 "K"键。否则请按"S"键。如果你准备好了，请按任何键开始实验。","你看到的符号对和前一项相匹配吗？如果是，请按"K"键，反之请按"S"键。",21,£ §,None,source/positive/5891.JPG,0,5,5,0,,,,,0,0,0,0,,,,,277.2024571000002,277.2024571000002,space,31.676185300000725,308.8880193999994,308.8880193999994,space,0.7370565000019269,322.98445580000043,322.98445580000043,309.67557339999985,322.98445580000043,309.67557339999985,322.98445580000043,309.67557339999985,322.98445580000043,309.67557339999985,323.4700995000003,323.4876528999994,313.1540308000003,s,1,325.1051929999994,326.12910629999897,2.1085689999999886,326.12910629999897,326.12910629999897,space,0.6515535000016826,326.8204612999998,326.8204612999998,326.8204612999998,326.8204612999998,326.8204612999998,326.8204612999998,326.8204612999998,326.8204612999998,326.8204612999998,327.28772559999925,327.32427819999975,330.2993757999993,None,1,,272.1969632,272.1969632,None,,,,,,,1,001,2022-11-20_23h24.18.685,Lab5_Emotional_NBack_Task,2022.2.4,164.75577427881203,
1-back,positive,practice_pos_1.xlsx,pos_1.xlsx,"1-back在本轮实验中，您需要牢牢记住当前的符号对的值，并判断是否与前一项相等。
请按任意键以继续
","1-back好了，准备开始正式测试了吗如果你看到的符号对和前一项相匹配，请在3.5秒内按下 "K"键。否则请按"S"键。如果你准备好了，请按任何键开始实验。","你看到的符号对和前一项相匹配吗？如果是，请按"K"键，反之请按"S"键。",21,§ £,s,source/positive/7502.JPG,0,5,5,0,,,,,0,1,1,1,,,,,,,,,,,,,,,,,,,,,,,,,,,,,,,,,,330.2993757999993,330.2993757999993,,330.2993757999993,,330.2993757999993,,330.2993757999993,,330.7846473999998,330.8035180000006,,s,1,0.6152202000012039,,,,,,,,,,1,001,2022-11-20_23h24.18.685,Lab5_Emotional_NBack_Task,2022.2.4,164.75577427881203,
1-back,positive,practice_pos_1.xlsx,pos_1.xlsx,"1-back在本轮实验中，您需要牢牢记住当前的符号对的值，并判断是否与前一项相等。
请按任意键以继续
","1-back好了，准备开始正式测试了吗如果你看到的符号对和前一项相匹配，请在3.5秒内按下 "K"键。否则请按"S"键。如果你准备好了，请按任何键开始实验。","你看到的符号对和前一项相匹配吗？如果是，请按"K"键，反之请按"S"键。",21,£ §,s,source/positive/8330.JPG,0,5,5,0,,,,,0,2,2,2,,,,,,,,,,,,,,,,,,,,,,,,,,,,,,,,,,330.9355632000006,330.9355632000006,,330.9355632000006,,330.9355632000006,,330.9355632000006,,331.42139549999956,331.43905339999947,,s,1,0.723284000001513,,,,,,,,,,1,001,2022-11-20_23h24.18.685,Lab5_Emotional_NBack_Task,2022.2.4,164.75577427881203,
1-back,positive,practice_pos_1.xlsx,pos_1.xlsx,"1-back在本轮实验中，您需要牢牢记住当前的符号对的值，并判断是否与前一项相等。
请按任意键以继续
","1-back好了，准备开始正式测试了吗如果你看到的符号对和前一项相匹配，请在3.5秒内按下 "K"键。否则请按"S"键。如果你准备好了，请按任何键开始实验。","你看到的符号对和前一项相匹配吗？如果是，请按"K"键，反之请按"S"键。",21,§ £,s,source/positive/7325.JPG,0,5,5,0,,,,,0,3,3,3,,,,,,,,,,,,,,,,,,,,,,,,,,,,,,,,,,331.6806715999992,331.6806715999992,,331.6806715999992,,331.6806715999992,,331.6806715999992,,332.1666167000003,332.18488590000015,,s,1,1.1068684000019857,,,,,,,,,,1,001,2022-11-20_23h24.18.685,Lab5_Emotional_NBack_Task,2022.2.4,164.75577427881203,
1-back,positive,practice_pos_1.xlsx,pos_1.xlsx,"1-back在本轮实验中，您需要牢牢记住当前的符号对的值，并判断是否与前一项相等。
请按任意键以继续
","1-back好了，准备开始正式测试了吗如果你看到的符号对和前一项相匹配，请在3.5秒内按下 "K"键。否则请按"S"键。如果你准备好了，请按任何键开始实验。","你看到的符号对和前一项相匹配吗？如果是，请按"K"键，反之请按"S"键。",21,§ £,k,source/positive/4656.JPG,0,5,5,0,,,,,0,4,4,4,,,,,,,,,,,,,,,,,,,,,,,,,,,,,,,,,,332.8086022999996,332.8086022999996,,332.8086022999996,,332.8086022999996,,332.8086022999996,,333.2937340999997,333.3121754999993,,k,1,0.723529700002473,,,,,,,,,,1,001,2022-11-20_23h24.18.685,Lab5_Emotional_NBack_Task,2022.2.4,164.75577427881203,
1-back,positive,practice_pos_1.xlsx,pos_1.xlsx,"1-back在本轮实验中，您需要牢牢记住当前的符号对的值，并判断是否与前一项相等。
请按任意键以继续
","1-back好了，准备开始正式测试了吗如果你看到的符号对和前一项相匹配，请在3.5秒内按下 "K"键。否则请按"S"键。如果你准备好了，请按任何键开始实验。","你看到的符号对和前一项相匹配吗？如果是，请按"K"键，反之请按"S"键。",21,¤ #,s,source/positive/2655.JPG,0,5,5,0,,,,,0,5,5,5,,,,,,,,,,,,,,,,,,,,,,,,,,,,,,,,,,333.560333899999,333.560333899999,,333.560333899999,,333.560333899999,,333.560333899999,,334.0392026999998,334.0634912000005,,s,1,0.6615811000010581,,,,,,,,,,1,001,2022-11-20_23h24.18.685,Lab5_Emotional_NBack_Task,2022.2.4,164.75577427881203,
1-back,positive,practice_pos_1.xlsx,pos_1.xlsx,"1-back在本轮实验中，您需要牢牢记住当前的符号对的值，并判断是否与前一项相等。
请按任意键以继续
","1-back好了，准备开始正式测试了吗如果你看到的符号对和前一项相匹配，请在3.5秒内按下 "K"键。否则请按"S"键。如果你准备好了，请按任何键开始实验。","你看到的符号对和前一项相匹配吗？如果是，请按"K"键，反之请按"S"键。",21,¤ #,k,source/positive/2344.JPG,0,5,5,0,,,,,0,6,6,6,,,,,,,,,,,,,,,,,,,,,,,,,,,,,,,,,,334.24470610000026,334.24470610000026,,334.24470610000026,,334.24470610000026,,334.24470610000026,,334.7299781999991,334.74818609999966,,k,1,0.6491995000014867,,,,,,,,,,1,001,2022-11-20_23h24.18.685,Lab5_Emotional_NBack_Task,2022.2.4,164.75577427881203,
1-back,positive,practice_pos_1.xlsx,pos_1.xlsx,"1-back在本轮实验中，您需要牢牢记住当前的符号对的值，并判断是否与前一项相等。
请按任意键以继续
","1-back好了，准备开始正式测试了吗如果你看到的符号对和前一项相匹配，请在3.5秒内按下 "K"键。否则请按"S"键。如果你准备好了，请按任何键开始实验。","你看到的符号对和前一项相匹配吗？如果是，请按"K"键，反之请按"S"键。",21,~ ¤,s,source/positive/7390.JPG,0,5,5,0,,,,,0,7,7,7,,,,,,,,,,,,,,,,,,,,,,,,,,,,,,,,,,334.9110406,334.9110406,,334.9110406,,334.9110406,,334.9110406,,335.39720920000036,335.41486129999976,,s,1,0.5902755000006437,,,,,,,,,,1,001,2022-11-20_23h24.18.685,Lab5_Emotional_NBack_Task,2022.2.4,164.75577427881203,
1-back,positive,practice_pos_1.xlsx,pos_1.xlsx,"1-back在本轮实验中，您需要牢牢记住当前的符号对的值，并判断是否与前一项相等。
请按任意键以继续
","1-back好了，准备开始正式测试了吗如果你看到的符号对和前一项相匹配，请在3.5秒内按下 "K"键。否则请按"S"键。如果你准备好了，请按任何键开始实验。","你看到的符号对和前一项相匹配吗？如果是，请按"K"键，反之请按"S"键。",21,~ ¤,k,source/positive/1604.JPG,0,5,5,0,,,,,0,8,8,8,,,,,,,,,,,,,,,,,,,,,,,,,,,,,,,,,,335.5236943,335.5236943,,335.5236943,,335.5236943,,335.5236943,,336.0090211000006,336.02695999999924,,k,1,0.574086200002057,,,,,,,,,,1,001,2022-11-20_23h24.18.685,Lab5_Emotional_NBack_Task,2022.2.4,164.75577427881203,
1-back,positive,practice_pos_1.xlsx,pos_1.xlsx,"1-back在本轮实验中，您需要牢牢记住当前的符号对的值，并判断是否与前一项相等。
请按任意键以继续
","1-back好了，准备开始正式测试了吗如果你看到的符号对和前一项相匹配，请在3.5秒内按下 "K"键。否则请按"S"键。如果你准备好了，请按任何键开始实验。","你看到的符号对和前一项相匹配吗？如果是，请按"K"键，反之请按"S"键。",21,~ ¤,k,source/positive/7270.JPG,0,5,5,0,,,,,0,9,9,9,,,,,,,,,,,,,,,,,,,,,,,,,,,,,,,,,,336.1175708999999,336.1175708999999,,336.1175708999999,,336.1175708999999,,336.1175708999999,,336.602953399999,336.62104009999894,,k,1,0.641661200001181,,,,,,,,,,1,001,2022-11-20_23h24.18.685,Lab5_Emotional_NBack_Task,2022.2.4,164.75577427881203,
1-back,positive,practice_pos_1.xlsx,pos_1.xlsx,"1-back在本轮实验中，您需要牢牢记住当前的符号对的值，并判断是否与前一项相等。
请按任意键以继续
","1-back好了，准备开始正式测试了吗如果你看到的符号对和前一项相匹配，请在3.5秒内按下 "K"键。否则请按"S"键。如果你准备好了，请按任何键开始实验。","你看到的符号对和前一项相匹配吗？如果是，请按"K"键，反之请按"S"键。",21,# ‹,s,source/positive/4641.JPG,0,5,5,0,,,,,0,10,10,10,,,,,,,,,,,,,,,,,,,,,,,,,,,,,,,,,,336.77793389999897,336.77793389999897,,336.77793389999897,,336.77793389999897,,336.77793389999897,,337.26383910000004,337.28173810000044,,s,1,0.644656100001157,,,,,,,,,,1,001,2022-11-20_23h24.18.685,Lab5_Emotional_NBack_Task,2022.2.4,164.75577427881203,
1-back,positive,practice_pos_1.xlsx,pos_1.xlsx,"1-back在本轮实验中，您需要牢牢记住当前的符号对的值，并判断是否与前一项相等。
请按任意键以继续
","1-back好了，准备开始正式测试了吗如果你看到的符号对和前一项相匹配，请在3.5秒内按下 "K"键。否则请按"S"键。如果你准备好了，请按任何键开始实验。","你看到的符号对和前一项相匹配吗？如果是，请按"K"键，反之请按"S"键。",21,# ‹,k,source/positive/5820.JPG,0,5,5,0,,,,,0,11,11,11,,,,,,,,,,,,,,,,,,,,,,,,,,,,,,,,,,337.44502439999997,337.44502439999997,,337.44502439999997,,337.44502439999997,,337.44502439999997,,337.9306992999991,337.94821539999975,,s,0,0.619487100000697,,,,,,,,,,1,001,2022-11-20_23h24.18.685,Lab5_Emotional_NBack_Task,2022.2.4,164.75577427881203,
1-back,positive,practice_pos_1.xlsx,pos_1.xlsx,"1-back在本轮实验中，您需要牢牢记住当前的符号对的值，并判断是否与前一项相等。
请按任意键以继续
","1-back好了，准备开始正式测试了吗如果你看到的符号对和前一项相匹配，请在3.5秒内按下 "K"键。否则请按"S"键。如果你准备好了，请按任何键开始实验。","你看到的符号对和前一项相匹配吗？如果是，请按"K"键，反之请按"S"键。",21,# ‹,k,source/positive/2260.JPG,0,5,5,0,,,,,0,12,12,12,,,,,,,,,,,,,,,,,,,,,,,,,,,,,,,,,,338.08722900000066,338.08722900000066,,338.08722900000066,,338.08722900000066,,338.08722900000066,,338.57241369999974,338.5906866000005,,k,1,0.7381519999999,,,,,,,,,,1,001,2022-11-20_23h24.18.685,Lab5_Emotional_NBack_Task,2022.2.4,164.75577427881203,
1-back,positive,practice_pos_1.xlsx,pos_1.xlsx,"1-back在本轮实验中，您需要牢牢记住当前的符号对的值，并判断是否与前一项相等。
请按任意键以继续
","1-back好了，准备开始正式测试了吗如果你看到的符号对和前一项相匹配，请在3.5秒内按下 "K"键。否则请按"S"键。如果你准备好了，请按任何键开始实验。","你看到的符号对和前一项相匹配吗？如果是，请按"K"键，反之请按"S"键。",21,§ ‡,s,source/positive/1999.JPG,0,5,5,0,,,,,0,13,13,13,,,,,,,,,,,,,,,,,,,,,,,,,,,,,,,,,,338.8446196999994,338.8446196999994,,338.8446196999994,,338.8446196999994,,338.8446196999994,,339.3300889000002,339.34837960000004,,s,1,0.9330122000010306,,,,,,,,,,1,001,2022-11-20_23h24.18.685,Lab5_Emotional_NBack_Task,2022.2.4,164.75577427881203,
1-back,positive,practice_pos_1.xlsx,pos_1.xlsx,"1-back在本轮实验中，您需要牢牢记住当前的符号对的值，并判断是否与前一项相等。
请按任意键以继续
","1-back好了，准备开始正式测试了吗如果你看到的符号对和前一项相匹配，请在3.5秒内按下 "K"键。否则请按"S"键。如果你准备好了，请按任何键开始实验。","你看到的符号对和前一项相匹配吗？如果是，请按"K"键，反之请按"S"键。",21,# ^,s,source/positive/2310.JPG,0,5,5,0,,,,,0,14,14,14,,,,,,,,,,,,,,,,,,,,,,,,,,,,,,,,,,339.7958875000004,339.7958875000004,,339.7958875000004,,339.7958875000004,,339.7958875000004,,340.28162150000026,340.299525299999,,s,1,0.6750260999997408,,,,,,,,,,1,001,2022-11-20_23h24.18.685,Lab5_Emotional_NBack_Task,2022.2.4,164.75577427881203,
1-back,positive,practice_pos_1.xlsx,pos_1.xlsx,"1-back在本轮实验中，您需要牢牢记住当前的符号对的值，并判断是否与前一项相等。
请按任意键以继续
","1-back好了，准备开始正式测试了吗如果你看到的符号对和前一项相匹配，请在3.5秒内按下 "K"键。否则请按"S"键。如果你准备好了，请按任何键开始实验。","你看到的符号对和前一项相匹配吗？如果是，请按"K"键，反之请按"S"键。",21,# ^,k,source/positive/5830.JPG,0,5,5,0,,,,,0,15,15,15,,,,,,,,,,,,,,,,,,,,,,,,,,,,,,,,,,340.4933638000002,340.4933638000002,,340.4933638000002,,340.4933638000002,,340.4933638000002,,340.97820370000045,340.99640569999974,,k,1,0.6434693000010157,,,,,,,,,,1,001,2022-11-20_23h24.18.685,Lab5_Emotional_NBack_Task,2022.2.4,164.75577427881203,
1-back,positive,practice_pos_1.xlsx,pos_1.xlsx,"1-back在本轮实验中，您需要牢牢记住当前的符号对的值，并判断是否与前一项相等。
请按任意键以继续
","1-back好了，准备开始正式测试了吗如果你看到的符号对和前一项相匹配，请在3.5秒内按下 "K"键。否则请按"S"键。如果你准备好了，请按任何键开始实验。","你看到的符号对和前一项相匹配吗？如果是，请按"K"键，反之请按"S"键。",21,¥ §,s,source/positive/2500.JPG,0,5,5,0,,,,,0,16,16,16,,,,,,,,,,,,,,,,,,,,,,,,,,,,,,,,,,341.1596609999997,341.1596609999997,,341.1596609999997,,341.1596609999997,,341.1596609999997,,341.6451407000004,341.66319400000066,,s,1,0.5638182000020606,,,,,,,,,,1,001,2022-11-20_23h24.18.685,Lab5_Emotional_NBack_Task,2022.2.4,164.75577427881203,
1-back,positive,practice_pos_1.xlsx,pos_1.xlsx,"1-back在本轮实验中，您需要牢牢记住当前的符号对的值，并判断是否与前一项相等。
请按任意键以继续
","1-back好了，准备开始正式测试了吗如果你看到的符号对和前一项相匹配，请在3.5秒内按下 "K"键。否则请按"S"键。如果你准备好了，请按任何键开始实验。","你看到的符号对和前一项相匹配吗？如果是，请按"K"键，反之请按"S"键。",21,¥ §,k,source/positive/5621.JPG,0,5,5,0,,,,,0,17,17,17,,,,,,,,,,,,,,,,,,,,,,,,,,,,,,,,,,341.74156480000056,341.74156480000056,,341.74156480000056,,341.74156480000056,,341.74156480000056,,342.2273079000006,342.24532890000046,,k,1,0.6177226000017981,,,,,,,,,,1,001,2022-11-20_23h24.18.685,Lab5_Emotional_NBack_Task,2022.2.4,164.75577427881203,
1-back,positive,practice_pos_1.xlsx,pos_1.xlsx,"1-back在本轮实验中，您需要牢牢记住当前的符号对的值，并判断是否与前一项相等。
请按任意键以继续
","1-back好了，准备开始正式测试了吗如果你看到的符号对和前一项相匹配，请在3.5秒内按下 "K"键。否则请按"S"键。如果你准备好了，请按任何键开始实验。","你看到的符号对和前一项相匹配吗？如果是，请按"K"键，反之请按"S"键。",21,§ £,s,source/positive/1602.JPG,0,5,5,0,,,,,0,18,18,18,,,,,,,,,,,,,,,,,,,,,,,,,,,,,,,,,,342.37782080000034,342.37782080000034,,342.37782080000034,,342.37782080000034,,342.37782080000034,,342.8636157000001,342.88145989999975,,s,1,0.6119020000005548,,,,,,,,,,1,001,2022-11-20_23h24.18.685,Lab5_Emotional_NBack_Task,2022.2.4,164.75577427881203,
1-back,positive,practice_pos_1.xlsx,pos_1.xlsx,"1-back在本轮实验中，您需要牢牢记住当前的符号对的值，并判断是否与前一项相等。
请按任意键以继续
","1-back好了，准备开始正式测试了吗如果你看到的符号对和前一项相匹配，请在3.5秒内按下 "K"键。否则请按"S"键。如果你准备好了，请按任何键开始实验。","你看到的符号对和前一项相匹配吗？如果是，请按"K"键，反之请按"S"键。",21,§ £,k,source/positive/8420.JPG,0,5,5,0,,,,,0,19,19,19,,,,,,,,,,,,,,,,,,,,,,,,,,,,,,,,,,343.0085479999998,343.0085479999998,,343.0085479999998,,343.0085479999998,,343.0085479999998,,343.4934799999992,343.51181329999963,,k,1,0.5983959000022878,,,,,,,,,,1,001,2022-11-20_23h24.18.685,Lab5_Emotional_NBack_Task,2022.2.4,164.75577427881203,
1-back,positive,practice_pos_1.xlsx,pos_1.xlsx,"1-back在本轮实验中，您需要牢牢记住当前的符号对的值，并判断是否与前一项相等。
请按任意键以继续
","1-back好了，准备开始正式测试了吗如果你看到的符号对和前一项相匹配，请在3.5秒内按下 "K"键。否则请按"S"键。如果你准备好了，请按任何键开始实验。","你看到的符号对和前一项相匹配吗？如果是，请按"K"键，反之请按"S"键。",21,§ £,k,source/positive/2370.JPG,0,5,5,0,,,,,0,20,20,20,,,,,,,,,,,,,,,,,,,,,,,,,,,,,,,,,,343.625908,343.625908,,343.625908,,343.625908,,343.625908,,344.11189019999983,344.1298391,,k,1,0.614772200000516,,,,,,,,,,1,001,2022-11-20_23h24.18.685,Lab5_Emotional_NBack_Task,2022.2.4,164.75577427881203,
2-back,neutral,practice_neu_2.xlsx,neu_2.xlsx,"2-back在本轮实验中，您需要牢牢记住当前的符号对的值，并判断是否与向前追溯的第二项符号对相等。按任意键以继续
","2-back好了，准备开始正式测试了吗如果你看到的符号对和之前第二项相匹配，请在3.5秒内按下 "K"键。否则请按"S"键。如果你准备好了，请按任何键开始实验。","你看到的符号对和向前追溯2项的符号相匹配吗？如果是，请按"K"键，反之请按"S"键。",22,# ^,None,source/neutral/7009.JPG,0,6,6,5,,,,,0,0,0,0,,,,,346.11665039999934,346.11665039999934,space,1.0671689000009792,347.1904075000002,347.1904075000002,space,0.6206858000023203,363.81394960000034,363.81394960000034,351.32934620000015,363.81394960000034,351.32934620000015,363.81394960000034,351.32934620000015,363.81394960000034,351.32934620000015,364.29933399999936,364.31779370000004,354.8322924999993,s,0,364.72289140000066,365.7468274999992,0.892291699999987,365.7468274999992,365.7468274999992,space,0.9653452000002289,366.74684119999984,366.74684119999984,366.74684119999984,366.74684119999984,366.74684119999984,366.74684119999984,366.74684119999984,366.74684119999984,366.74684119999984,367.2142917000001,367.2510602000002,370.2263559999992,None,1,,344.2682136000003,344.2682136000003,space,1.8231774000014411,,,,,,1,001,2022-11-20_23h24.18.685,Lab5_Emotional_NBack_Task,2022.2.4,164.75577427881203,
2-back,neutral,practice_neu_2.xlsx,neu_2.xlsx,"2-back在本轮实验中，您需要牢牢记住当前的符号对的值，并判断是否与向前追溯的第二项符号对相等。按任意键以继续
","2-back好了，准备开始正式测试了吗如果你看到的符号对和之前第二项相匹配，请在3.5秒内按下 "K"键。否则请按"S"键。如果你准备好了，请按任何键开始实验。","你看到的符号对和向前追溯2项的符号相匹配吗？如果是，请按"K"键，反之请按"S"键。",22,§ ‡,None,source/neutral/5531.JPG,0,6,6,5,,,,,0,1,1,1,,,,,,,,,,,,,,,,,,,,,,,,,,,,,,,,,,370.2263559999992,370.2263559999992,370.2263559999992,370.2263559999992,370.2263559999992,370.2263559999992,370.2263559999992,370.2263559999992,370.2263559999992,370.71189330000016,370.72983380000005,373.7231869999996,None,1,,,,,,,,,,,1,001,2022-11-20_23h24.18.685,Lab5_Emotional_NBack_Task,2022.2.4,164.75577427881203,
2-back,neutral,practice_neu_2.xlsx,neu_2.xlsx,"2-back在本轮实验中，您需要牢牢记住当前的符号对的值，并判断是否与向前追溯的第二项符号对相等。按任意键以继续
","2-back好了，准备开始正式测试了吗如果你看到的符号对和之前第二项相匹配，请在3.5秒内按下 "K"键。否则请按"S"键。如果你准备好了，请按任何键开始实验。","你看到的符号对和向前追溯2项的符号相匹配吗？如果是，请按"K"键，反之请按"S"键。",22,§ ‡,s,source/neutral/7590.JPG,0,6,6,5,,,,,0,2,2,2,,,,,,,,,,,,,,,,,,,,,,,,,,,,,,,,,,373.7231869999996,373.7231869999996,,373.7231869999996,,373.7231869999996,,373.7231869999996,,,,,k,0,0.27455770000051416,,,,,,,,,,1,001,2022-11-20_23h24.18.685,Lab5_Emotional_NBack_Task,2022.2.4,164.75577427881203,
2-back,neutral,practice_neu_2.xlsx,neu_2.xlsx,"2-back在本轮实验中，您需要牢牢记住当前的符号对的值，并判断是否与向前追溯的第二项符号对相等。按任意键以继续
","2-back好了，准备开始正式测试了吗如果你看到的符号对和之前第二项相匹配，请在3.5秒内按下 "K"键。否则请按"S"键。如果你准备好了，请按任何键开始实验。","你看到的符号对和向前追溯2项的符号相匹配吗？如果是，请按"K"键，反之请按"S"键。",22,§ ‡,k,source/neutral/5530.JPG,0,6,6,5,,,,,0,3,3,3,,,,,,,,,,,,,,,,,,,,,,,,,,,,,,,,,,374.0197860999997,374.0197860999997,,374.0197860999997,,374.0197860999997,,374.0197860999997,,374.50560079999923,374.5238079999999,,s,0,0.982692000001407,,,,,,,,,,1,001,2022-11-20_23h24.18.685,Lab5_Emotional_NBack_Task,2022.2.4,164.75577427881203,
2-back,neutral,practice_neu_2.xlsx,neu_2.xlsx,"2-back在本轮实验中，您需要牢牢记住当前的符号对的值，并判断是否与向前追溯的第二项符号对相等。按任意键以继续
","2-back好了，准备开始正式测试了吗如果你看到的符号对和之前第二项相匹配，请在3.5秒内按下 "K"键。否则请按"S"键。如果你准备好了，请按任何键开始实验。","你看到的符号对和向前追溯2项的符号相匹配吗？如果是，请按"K"键，反之请按"S"键。",22,£ §,s,source/neutral/2381.JPG,0,6,6,5,,,,,0,4,4,4,,,,,,,,,,,,,,,,,,,,,,,,,,,,,,,,,,375.01969009999993,375.01969009999993,,375.01969009999993,,375.01969009999993,,375.01969009999993,,375.5055962999995,375.52354229999946,,k,0,1.1389380000018718,,,,,,,,,,1,001,2022-11-20_23h24.18.685,Lab5_Emotional_NBack_Task,2022.2.4,164.75577427881203,
2-back,neutral,practice_neu_2.xlsx,neu_2.xlsx,"2-back在本轮实验中，您需要牢牢记住当前的符号对的值，并判断是否与向前追溯的第二项符号对相等。按任意键以继续
","2-back好了，准备开始正式测试了吗如果你看到的符号对和之前第二项相匹配，请在3.5秒内按下 "K"键。否则请按"S"键。如果你准备好了，请按任何键开始实验。","你看到的符号对和向前追溯2项的符号相匹配吗？如果是，请按"K"键，反之请按"S"键。",22,£ ‡,s,source/neutral/8080.JPG,0,6,6,5,,,,,0,5,5,5,,,,,,,,,,,,,,,,,,,,,,,,,,,,,,,,,,376.1783111000004,376.1783111000004,,376.1783111000004,,376.1783111000004,,376.1783111000004,,376.66337340000064,376.68129640000006,,k,0,1.1350744999999733,,,,,,,,,,1,001,2022-11-20_23h24.18.685,Lab5_Emotional_NBack_Task,2022.2.4,164.75577427881203,
2-back,neutral,practice_neu_2.xlsx,neu_2.xlsx,"2-back在本轮实验中，您需要牢牢记住当前的符号对的值，并判断是否与向前追溯的第二项符号对相等。按任意键以继续
","2-back好了，准备开始正式测试了吗如果你看到的符号对和之前第二项相匹配，请在3.5秒内按下 "K"键。否则请按"S"键。如果你准备好了，请按任何键开始实验。","你看到的符号对和向前追溯2项的符号相匹配吗？如果是，请按"K"键，反之请按"S"键。",22,£ §,k,source/neutral/5500.JPG,0,6,6,5,,,,,0,6,6,6,,,,,,,,,,,,,,,,,,,,,,,,,,,,,,,,,,377.3351172999992,377.3351172999992,,377.3351172999992,,377.3351172999992,,377.3351172999992,,377.82061169999906,377.83868880000045,,k,1,0.8469010000026174,,,,,,,,,,1,001,2022-11-20_23h24.18.685,Lab5_Emotional_NBack_Task,2022.2.4,164.75577427881203,
2-back,neutral,practice_neu_2.xlsx,neu_2.xlsx,"2-back在本轮实验中，您需要牢牢记住当前的符号对的值，并判断是否与向前追溯的第二项符号对相等。按任意键以继续
","2-back好了，准备开始正式测试了吗如果你看到的符号对和之前第二项相匹配，请在3.5秒内按下 "K"键。否则请按"S"键。如果你准备好了，请按任何键开始实验。","你看到的符号对和向前追溯2项的符号相匹配吗？如果是，请按"K"键，反之请按"S"键。",22,¥ §,s,source/neutral/1540.JPG,0,6,6,5,,,,,0,7,7,7,,,,,,,,,,,,,,,,,,,,,,,,,,,,,,,,,,378.2016230999998,378.2016230999998,,378.2016230999998,,378.2016230999998,,378.2016230999998,,378.68732610000006,378.7056837,,s,1,1.033967900000789,,,,,,,,,,1,001,2022-11-20_23h24.18.685,Lab5_Emotional_NBack_Task,2022.2.4,164.75577427881203,
2-back,neutral,practice_neu_2.xlsx,neu_2.xlsx,"2-back在本轮实验中，您需要牢牢记住当前的符号对的值，并判断是否与向前追溯的第二项符号对相等。按任意键以继续
","2-back好了，准备开始正式测试了吗如果你看到的符号对和之前第二项相匹配，请在3.5秒内按下 "K"键。否则请按"S"键。如果你准备好了，请按任何键开始实验。","你看到的符号对和向前追溯2项的符号相匹配吗？如果是，请按"K"键，反之请按"S"键。",22,£ §,k,source/neutral/8250.JPG,0,6,6,5,,,,,0,8,8,8,,,,,,,,,,,,,,,,,,,,,,,,,,,,,,,,,,379.2557811000006,379.2557811000006,,379.2557811000006,,379.2557811000006,,379.2557811000006,,379.7419786999999,379.7599011000002,,k,1,0.9634411000006367,,,,,,,,,,1,001,2022-11-20_23h24.18.685,Lab5_Emotional_NBack_Task,2022.2.4,164.75577427881203,
2-back,neutral,practice_neu_2.xlsx,neu_2.xlsx,"2-back在本轮实验中，您需要牢牢记住当前的符号对的值，并判断是否与向前追溯的第二项符号对相等。按任意键以继续
","2-back好了，准备开始正式测试了吗如果你看到的符号对和之前第二项相匹配，请在3.5秒内按下 "K"键。否则请按"S"键。如果你准备好了，请按任何键开始实验。","你看到的符号对和向前追溯2项的符号相匹配吗？如果是，请按"K"键，反之请按"S"键。",22,¥ §,k,source/neutral/5510.JPG,0,6,6,5,,,,,0,9,9,9,,,,,,,,,,,,,,,,,,,,,,,,,,,,,,,,,,380.23838350000005,380.23838350000005,,380.23838350000005,,380.23838350000005,,380.23838350000005,,380.72364220000054,380.7416376000001,,k,1,0.9626613000018551,,,,,,,,,,1,001,2022-11-20_23h24.18.685,Lab5_Emotional_NBack_Task,2022.2.4,164.75577427881203,
2-back,neutral,practice_neu_2.xlsx,neu_2.xlsx,"2-back在本轮实验中，您需要牢牢记住当前的符号对的值，并判断是否与向前追溯的第二项符号对相等。按任意键以继续
","2-back好了，准备开始正式测试了吗如果你看到的符号对和之前第二项相匹配，请在3.5秒内按下 "K"键。否则请按"S"键。如果你准备好了，请按任何键开始实验。","你看到的符号对和向前追溯2项的符号相匹配吗？如果是，请按"K"键，反之请按"S"键。",22,§ £,s,source/neutral/7570.JPG,0,6,6,5,,,,,0,10,10,10,,,,,,,,,,,,,,,,,,,,,,,,,,,,,,,,,,381.2201805000004,381.2201805000004,,381.2201805000004,,381.2201805000004,,381.2201805000004,,381.7053397999989,381.72378949999984,,s,1,1.0209348000007594,,,,,,,,,,1,001,2022-11-20_23h24.18.685,Lab5_Emotional_NBack_Task,2022.2.4,164.75577427881203,
2-back,neutral,practice_neu_2.xlsx,neu_2.xlsx,"2-back在本轮实验中，您需要牢牢记住当前的符号对的值，并判断是否与向前追溯的第二项符号对相等。按任意键以继续
","2-back好了，准备开始正式测试了吗如果你看到的符号对和之前第二项相匹配，请在3.5秒内按下 "K"键。否则请按"S"键。如果你准备好了，请按任何键开始实验。","你看到的符号对和向前追溯2项的符号相匹配吗？如果是，请按"K"键，反之请按"S"键。",22,§ £,s,source/neutral/5520.JPG,0,6,6,5,,,,,0,11,11,11,,,,,,,,,,,,,,,,,,,,,,,,,,,,,,,,,,382.262004799999,382.262004799999,,382.262004799999,,382.262004799999,,382.262004799999,,382.7471583000006,382.7660022,,s,1,1.2496957000003022,,,,,,,,,,1,001,2022-11-20_23h24.18.685,Lab5_Emotional_NBack_Task,2022.2.4,164.75577427881203,
2-back,neutral,practice_neu_2.xlsx,neu_2.xlsx,"2-back在本轮实验中，您需要牢牢记住当前的符号对的值，并判断是否与向前追溯的第二项符号对相等。按任意键以继续
","2-back好了，准备开始正式测试了吗如果你看到的符号对和之前第二项相匹配，请在3.5秒内按下 "K"键。否则请按"S"键。如果你准备好了，请按任何键开始实验。","你看到的符号对和向前追溯2项的符号相匹配吗？如果是，请按"K"键，反之请按"S"键。",22,£ ‡,s,source/neutral/5533.JPG,0,6,6,5,,,,,0,12,12,12,,,,,,,,,,,,,,,,,,,,,,,,,,,,,,,,,,383.52879589999975,383.52879589999975,,383.52879589999975,,383.52879589999975,,383.52879589999975,,384.0141609000002,384.03213809999943,,s,1,1.102406100000735,,,,,,,,,,1,001,2022-11-20_23h24.18.685,Lab5_Emotional_NBack_Task,2022.2.4,164.75577427881203,
2-back,neutral,practice_neu_2.xlsx,neu_2.xlsx,"2-back在本轮实验中，您需要牢牢记住当前的符号对的值，并判断是否与向前追溯的第二项符号对相等。按任意键以继续
","2-back好了，准备开始正式测试了吗如果你看到的符号对和之前第二项相匹配，请在3.5秒内按下 "K"键。否则请按"S"键。如果你准备好了，请按任何键开始实验。","你看到的符号对和向前追溯2项的符号相匹配吗？如果是，请按"K"键，反之请按"S"键。",22,§ £,k,source/neutral/4300.JPG,0,6,6,5,,,,,0,13,13,13,,,,,,,,,,,,,,,,,,,,,,,,,,,,,,,,,,384.6501568999993,384.6501568999993,,384.6501568999993,,384.6501568999993,,384.6501568999993,,385.1352169999991,385.15376809999907,,k,1,0.7718095000000176,,,,,,,,,,1,001,2022-11-20_23h24.18.685,Lab5_Emotional_NBack_Task,2022.2.4,164.75577427881203,
2-back,neutral,practice_neu_2.xlsx,neu_2.xlsx,"2-back在本轮实验中，您需要牢牢记住当前的符号对的值，并判断是否与向前追溯的第二项符号对相等。按任意键以继续
","2-back好了，准备开始正式测试了吗如果你看到的符号对和之前第二项相匹配，请在3.5秒内按下 "K"键。否则请按"S"键。如果你准备好了，请按任何键开始实验。","你看到的符号对和向前追溯2项的符号相匹配吗？如果是，请按"K"键，反之请按"S"键。",22,£ §,s,source/neutral/2495.JPG,0,6,6,5,,,,,0,14,14,14,,,,,,,,,,,,,,,,,,,,,,,,,,,,,,,,,,385.4439624000006,385.4439624000006,,385.4439624000006,,385.4439624000006,,385.4439624000006,,385.9294291999995,385.947682,,s,1,0.7872456000004604,,,,,,,,,,1,001,2022-11-20_23h24.18.685,Lab5_Emotional_NBack_Task,2022.2.4,164.75577427881203,
2-back,neutral,practice_neu_2.xlsx,neu_2.xlsx,"2-back在本轮实验中，您需要牢牢记住当前的符号对的值，并判断是否与向前追溯的第二项符号对相等。按任意键以继续
","2-back好了，准备开始正式测试了吗如果你看到的符号对和之前第二项相匹配，请在3.5秒内按下 "K"键。否则请按"S"键。如果你准备好了，请按任何键开始实验。","你看到的符号对和向前追溯2项的符号相匹配吗？如果是，请按"K"键，反之请按"S"键。",22,§ £,k,source/neutral/2190.JPG,0,6,6,5,,,,,0,15,15,15,,,,,,,,,,,,,,,,,,,,,,,,,,,,,,,,,,386.2499403999991,386.2499403999991,,386.2499403999991,,386.2499403999991,,386.2499403999991,,386.7358753999997,386.7533731000003,,k,1,1.3879346000012447,,,,,,,,,,1,001,2022-11-20_23h24.18.685,Lab5_Emotional_NBack_Task,2022.2.4,164.75577427881203,
2-back,neutral,practice_neu_2.xlsx,neu_2.xlsx,"2-back在本轮实验中，您需要牢牢记住当前的符号对的值，并判断是否与向前追溯的第二项符号对相等。按任意键以继续
","2-back好了，准备开始正式测试了吗如果你看到的符号对和之前第二项相匹配，请在3.5秒内按下 "K"键。否则请按"S"键。如果你准备好了，请按任何键开始实验。","你看到的符号对和向前追溯2项的符号相匹配吗？如果是，请按"K"键，反之请按"S"键。",22,¥ §,s,source/neutral/8200.JPG,0,6,6,5,,,,,0,16,16,16,,,,,,,,,,,,,,,,,,,,,,,,,,,,,,,,,,387.65600880000056,387.65600880000056,,387.65600880000056,,387.65600880000056,,387.65600880000056,,388.1415956000001,388.1596874000006,,s,1,1.2846967000023142,,,,,,,,,,1,001,2022-11-20_23h24.18.685,Lab5_Emotional_NBack_Task,2022.2.4,164.75577427881203,
2-back,neutral,practice_neu_2.xlsx,neu_2.xlsx,"2-back在本轮实验中，您需要牢牢记住当前的符号对的值，并判断是否与向前追溯的第二项符号对相等。按任意键以继续
","2-back好了，准备开始正式测试了吗如果你看到的符号对和之前第二项相匹配，请在3.5秒内按下 "K"键。否则请按"S"键。如果你准备好了，请按任何键开始实验。","你看到的符号对和向前追溯2项的符号相匹配吗？如果是，请按"K"键，反之请按"S"键。",22,§ £,k,source/neutral/9005.JPG,0,6,6,5,,,,,0,17,17,17,,,,,,,,,,,,,,,,,,,,,,,,,,,,,,,,,,388.9591218000005,388.9591218000005,,388.9591218000005,,388.9591218000005,,388.9591218000005,,389.44440810000015,389.46252020000065,,k,1,1.1970629000006738,,,,,,,,,,1,001,2022-11-20_23h24.18.685,Lab5_Emotional_NBack_Task,2022.2.4,164.75577427881203,
2-back,neutral,practice_neu_2.xlsx,neu_2.xlsx,"2-back在本轮实验中，您需要牢牢记住当前的符号对的值，并判断是否与向前追溯的第二项符号对相等。按任意键以继续
","2-back好了，准备开始正式测试了吗如果你看到的符号对和之前第二项相匹配，请在3.5秒内按下 "K"键。否则请按"S"键。如果你准备好了，请按任何键开始实验。","你看到的符号对和向前追溯2项的符号相匹配吗？如果是，请按"K"键，反之请按"S"键。",22,¥ §,k,source/neutral/2215.JPG,0,6,6,5,,,,,0,18,18,18,,,,,,,,,,,,,,,,,,,,,,,,,,,,,,,,,,390.1831086000002,390.1831086000002,,390.1831086000002,,390.1831086000002,,390.1831086000002,,390.66274539999904,390.68700609999905,,k,1,0.9896073000018077,,,,,,,,,,1,001,2022-11-20_23h24.18.685,Lab5_Emotional_NBack_Task,2022.2.4,164.75577427881203,
2-back,neutral,practice_neu_2.xlsx,neu_2.xlsx,"2-back在本轮实验中，您需要牢牢记住当前的符号对的值，并判断是否与向前追溯的第二项符号对相等。按任意键以继续
","2-back好了，准备开始正式测试了吗如果你看到的符号对和之前第二项相匹配，请在3.5秒内按下 "K"键。否则请按"S"键。如果你准备好了，请按任何键开始实验。","你看到的符号对和向前追溯2项的符号相匹配吗？如果是，请按"K"键，反之请按"S"键。",22,§ £,k,source/neutral/7020.JPG,0,6,6,5,,,,,0,19,19,19,,,,,,,,,,,,,,,,,,,,,,,,,,,,,,,,,,391.1952146000003,391.1952146000003,,391.1952146000003,,391.1952146000003,,391.1952146000003,,391.68090250000023,391.6991476000003,,k,1,1.806326200001422,,,,,,,,,,1,001,2022-11-20_23h24.18.685,Lab5_Emotional_NBack_Task,2022.2.4,164.75577427881203,
2-back,neutral,practice_neu_2.xlsx,neu_2.xlsx,"2-back在本轮实验中，您需要牢牢记住当前的符号对的值，并判断是否与向前追溯的第二项符号对相等。按任意键以继续
","2-back好了，准备开始正式测试了吗如果你看到的符号对和之前第二项相匹配，请在3.5秒内按下 "K"键。否则请按"S"键。如果你准备好了，请按任何键开始实验。","你看到的符号对和向前追溯2项的符号相匹配吗？如果是，请按"K"键，反之请按"S"键。",22,¥ §,k,source/neutral/8400.JPG,0,6,6,5,,,,,0,20,20,20,,,,,,,,,,,,,,,,,,,,,,,,,,,,,,,,,,393.01949009999953,393.01949009999953,,393.01949009999953,,393.01949009999953,,393.01949009999953,,393.5049476999993,393.5229526999992,,s,0,1.0329219000013836,,,,,,,,,,1,001,2022-11-20_23h24.18.685,Lab5_Emotional_NBack_Task,2022.2.4,164.75577427881203,
2-back,neutral,practice_neu_2.xlsx,neu_2.xlsx,"2-back在本轮实验中，您需要牢牢记住当前的符号对的值，并判断是否与向前追溯的第二项符号对相等。按任意键以继续
","2-back好了，准备开始正式测试了吗如果你看到的符号对和之前第二项相匹配，请在3.5秒内按下 "K"键。否则请按"S"键。如果你准备好了，请按任何键开始实验。","你看到的符号对和向前追溯2项的符号相匹配吗？如果是，请按"K"键，反之请按"S"键。",22,£ §,s,source/neutral/7090.JPG,0,6,6,5,,,,,0,21,21,21,,,,,,,,,,,,,,,,,,,,,,,,,,,,,,,,,,394.07395759999963,394.07395759999963,,394.07395759999963,,394.07395759999963,,394.07395759999963,,394.55930609999996,394.5779141999992,,s,1,0.9972260000013193,,,,,,,,,,1,001,2022-11-20_23h24.18.685,Lab5_Emotional_NBack_Task,2022.2.4,164.75577427881203,
3-back,positive,practice_pos_3.xlsx,pos_3.xlsx,"3-back在本轮实验中，您需要牢牢记住当前的符号对的值，并判断是否与向前追溯的第三个符号对相等。按任意键以继续
","3-back好了，准备开始正式测试了吗如果你看到的符号对和之前第三项相匹配，请在3.5秒内按下 "K"键。否则请按"S"键。如果你准备好了，请按任何键开始实验。","你看到的符号对和向前追溯3项的符号相匹配吗？如果是，请按"K"键，反之请按"S"键。",23,§ £,None,source/positive/8501.JPG,0,7,7,6,,,,,0,0,0,0,,,,,397.02471069999956,397.02471069999956,space,1.2697476000012102,398.30492349999986,398.30492349999986,space,0.8476852000021609,414.91687830000046,414.91687830000046,406.1645045000005,414.91687830000046,406.1645045000005,414.91687830000046,406.1645045000005,414.91687830000046,406.1645045000005,406.6501647999994,406.668148499999,409.6755059999996,s,1,415.1402863000003,416.1580610000001,0.2110156000017014,416.1580610000001,416.1580610000001,space,0.5086979000006977,416.7036558,416.7036558,416.7036558,416.7036558,416.7036558,416.7036558,416.7036558,416.7036558,416.7036558,417.17142049999893,417.2077535999997,420.18338699999913,None,1,,395.09752689999914,395.09752689999914,space,1.90091780000148,,,,,,1,001,2022-11-20_23h24.18.685,Lab5_Emotional_NBack_Task,2022.2.4,164.75577427881203,
3-back,positive,practice_pos_3.xlsx,pos_3.xlsx,"3-back在本轮实验中，您需要牢牢记住当前的符号对的值，并判断是否与向前追溯的第三个符号对相等。按任意键以继续
","3-back好了，准备开始正式测试了吗如果你看到的符号对和之前第三项相匹配，请在3.5秒内按下 "K"键。否则请按"S"键。如果你准备好了，请按任何键开始实验。","你看到的符号对和向前追溯3项的符号相匹配吗？如果是，请按"K"键，反之请按"S"键。",23,§ ‡,None,source/positive/5982.JPG,0,7,7,6,,,,,0,1,1,1,,,,,,,,,,,,,,,,,,,,,,,,,,,,,,,,,,420.18338699999913,420.18338699999913,420.18338699999913,420.18338699999913,420.18338699999913,420.18338699999913,420.18338699999913,420.18338699999913,420.18338699999913,420.6682746000006,420.68616180000026,423.6796556999998,None,1,,,,,,,,,,,1,001,2022-11-20_23h24.18.685,Lab5_Emotional_NBack_Task,2022.2.4,164.75577427881203,
3-back,positive,practice_pos_3.xlsx,pos_3.xlsx,"3-back在本轮实验中，您需要牢牢记住当前的符号对的值，并判断是否与向前追溯的第三个符号对相等。按任意键以继续
","3-back好了，准备开始正式测试了吗如果你看到的符号对和之前第三项相匹配，请在3.5秒内按下 "K"键。否则请按"S"键。如果你准备好了，请按任何键开始实验。","你看到的符号对和向前追溯3项的符号相匹配吗？如果是，请按"K"键，反之请按"S"键。",23,§ ‡,None,source/positive/8161.JPG,0,7,7,6,,,,,0,2,2,2,,,,,,,,,,,,,,,,,,,,,,,,,,,,,,,,,,423.6796556999998,423.6796556999998,423.6796556999998,423.6796556999998,423.6796556999998,423.6796556999998,423.6796556999998,423.6796556999998,423.6796556999998,424.1648122000006,424.1829448999997,427.1765988999996,None,1,,,,,,,,,,,1,001,2022-11-20_23h24.18.685,Lab5_Emotional_NBack_Task,2022.2.4,164.75577427881203,
3-back,positive,practice_pos_3.xlsx,pos_3.xlsx,"3-back在本轮实验中，您需要牢牢记住当前的符号对的值，并判断是否与向前追溯的第三个符号对相等。按任意键以继续
","3-back好了，准备开始正式测试了吗如果你看到的符号对和之前第三项相匹配，请在3.5秒内按下 "K"键。否则请按"S"键。如果你准备好了，请按任何键开始实验。","你看到的符号对和向前追溯3项的符号相匹配吗？如果是，请按"K"键，反之请按"S"键。",23,§ £,k,source/positive/8531.JPG,0,7,7,6,,,,,0,3,3,3,,,,,,,,,,,,,,,,,,,,,,,,,,,,,,,,,,427.1765988999996,427.1765988999996,,427.1765988999996,,427.1765988999996,,427.1765988999996,,,,,k,1,0.4495303000003332,,,,,,,,,,1,001,2022-11-20_23h24.18.685,Lab5_Emotional_NBack_Task,2022.2.4,164.75577427881203,
3-back,positive,practice_pos_3.xlsx,pos_3.xlsx,"3-back在本轮实验中，您需要牢牢记住当前的符号对的值，并判断是否与向前追溯的第三个符号对相等。按任意键以继续
","3-back好了，准备开始正式测试了吗如果你看到的符号对和之前第三项相匹配，请在3.5秒内按下 "K"键。否则请按"S"键。如果你准备好了，请按任何键开始实验。","你看到的符号对和向前追溯3项的符号相匹配吗？如果是，请按"K"键，反之请按"S"键。",23,§ ‡,k,source/positive/5760.JPG,0,7,7,6,,,,,0,4,4,4,,,,,,,,,,,,,,,,,,,,,,,,,,,,,,,,,,427.6491499999993,427.6491499999993,,427.6491499999993,,427.6491499999993,,427.6491499999993,,428.1343018999996,428.1522829000005,,k,1,1.5040543000013713,,,,,,,,,,1,001,2022-11-20_23h24.18.685,Lab5_Emotional_NBack_Task,2022.2.4,164.75577427881203,
3-back,positive,practice_pos_3.xlsx,pos_3.xlsx,"3-back在本轮实验中，您需要牢牢记住当前的符号对的值，并判断是否与向前追溯的第三个符号对相等。按任意键以继续
","3-back好了，准备开始正式测试了吗如果你看到的符号对和之前第三项相匹配，请在3.5秒内按下 "K"键。否则请按"S"键。如果你准备好了，请按任何键开始实验。","你看到的符号对和向前追溯3项的符号相匹配吗？如果是，请按"K"键，反之请按"S"键。",23,¤ #,s,source/positive/5600.JPG,0,7,7,6,,,,,0,5,5,5,,,,,,,,,,,,,,,,,,,,,,,,,,,,,,,,,,429.17652739999903,429.17652739999903,,429.17652739999903,,429.17652739999903,,429.17652739999903,,429.6620676000002,429.680053099999,,s,1,1.0793187000017497,,,,,,,,,,1,001,2022-11-20_23h24.18.685,Lab5_Emotional_NBack_Task,2022.2.4,164.75577427881203,
3-back,positive,practice_pos_3.xlsx,pos_3.xlsx,"3-back在本轮实验中，您需要牢牢记住当前的符号对的值，并判断是否与向前追溯的第三个符号对相等。按任意键以继续
","3-back好了，准备开始正式测试了吗如果你看到的符号对和之前第三项相匹配，请在3.5秒内按下 "K"键。否则请按"S"键。如果你准备好了，请按任何键开始实验。","你看到的符号对和向前追溯3项的符号相匹配吗？如果是，请按"K"键，反之请按"S"键。",23,¤ #,s,source/positive/5260.JPG,0,7,7,6,,,,,0,6,6,6,,,,,,,,,,,,,,,,,,,,,,,,,,,,,,,,,,430.2736936000001,430.2736936000001,,430.2736936000001,,430.2736936000001,,430.2736936000001,,430.75901239999985,430.7773271999995,,s,1,1.2040360000009969,,,,,,,,,,1,001,2022-11-20_23h24.18.685,Lab5_Emotional_NBack_Task,2022.2.4,164.75577427881203,
3-back,positive,practice_pos_3.xlsx,pos_3.xlsx,"3-back在本轮实验中，您需要牢牢记住当前的符号对的值，并判断是否与向前追溯的第三个符号对相等。按任意键以继续
","3-back好了，准备开始正式测试了吗如果你看到的符号对和之前第三项相匹配，请在3.5秒内按下 "K"键。否则请按"S"键。如果你准备好了，请按任何键开始实验。","你看到的符号对和向前追溯3项的符号相匹配吗？如果是，请按"K"键，反之请按"S"键。",23,§ ‡,k,source/positive/8210.JPG,0,7,7,6,,,,,0,7,7,7,,,,,,,,,,,,,,,,,,,,,,,,,,,,,,,,,,431.49765149999985,431.49765149999985,,431.49765149999985,,431.49765149999985,,431.49765149999985,,431.983164199999,432.0012693999997,,k,1,1.8412371000013081,,,,,,,,,,1,001,2022-11-20_23h24.18.685,Lab5_Emotional_NBack_Task,2022.2.4,164.75577427881203,
3-back,positive,practice_pos_3.xlsx,pos_3.xlsx,"3-back在本轮实验中，您需要牢牢记住当前的符号对的值，并判断是否与向前追溯的第三个符号对相等。按任意键以继续
","3-back好了，准备开始正式测试了吗如果你看到的符号对和之前第三项相匹配，请在3.5秒内按下 "K"键。否则请按"S"键。如果你准备好了，请按任何键开始实验。","你看到的符号对和向前追溯3项的符号相匹配吗？如果是，请按"K"键，反之请按"S"键。",23,¤ #,k,source/positive/1460.JPG,0,7,7,6,,,,,0,8,8,8,,,,,,,,,,,,,,,,,,,,,,,,,,,,,,,,,,433.3588748000002,433.3588748000002,,433.3588748000002,,433.3588748000002,,433.3588748000002,,433.8438138999991,433.8620002000007,,k,1,0.7385172000012972,,,,,,,,,,1,001,2022-11-20_23h24.18.685,Lab5_Emotional_NBack_Task,2022.2.4,164.75577427881203,
3-back,positive,practice_pos_3.xlsx,pos_3.xlsx,"3-back在本轮实验中，您需要牢牢记住当前的符号对的值，并判断是否与向前追溯的第三个符号对相等。按任意键以继续
","3-back好了，准备开始正式测试了吗如果你看到的符号对和之前第三项相匹配，请在3.5秒内按下 "K"键。否则请按"S"键。如果你准备好了，请按任何键开始实验。","你看到的符号对和向前追溯3项的符号相匹配吗？如果是，请按"K"键，反之请按"S"键。",23,¥ §,s,source/positive/2057.JPG,0,7,7,6,,,,,0,9,9,9,,,,,,,,,,,,,,,,,,,,,,,,,,,,,,,,,,434.1160275000002,434.1160275000002,,434.1160275000002,,434.1160275000002,,434.1160275000002,,434.6012394999998,434.61971970000013,,s,1,2.001366100001178,,,,,,,,,,1,001,2022-11-20_23h24.18.685,Lab5_Emotional_NBack_Task,2022.2.4,164.75577427881203,
3-back,positive,practice_pos_3.xlsx,pos_3.xlsx,"3-back在本轮实验中，您需要牢牢记住当前的符号对的值，并判断是否与向前追溯的第三个符号对相等。按任意键以继续
","3-back好了，准备开始正式测试了吗如果你看到的符号对和之前第三项相匹配，请在3.5秒内按下 "K"键。否则请按"S"键。如果你准备好了，请按任何键开始实验。","你看到的符号对和向前追溯3项的符号相匹配吗？如果是，请按"K"键，反之请按"S"键。",23,§ £,s,source/positive/4601.JPG,0,7,7,6,,,,,0,10,10,10,,,,,,,,,,,,,,,,,,,,,,,,,,,,,,,,,,436.13993909999954,436.13993909999954,,436.13993909999954,,436.13993909999954,,436.13993909999954,,436.6253971999995,436.6439668999992,,k,0,1.499343300001783,,,,,,,,,,1,001,2022-11-20_23h24.18.685,Lab5_Emotional_NBack_Task,2022.2.4,164.75577427881203,
3-back,positive,practice_pos_3.xlsx,pos_3.xlsx,"3-back在本轮实验中，您需要牢牢记住当前的符号对的值，并判断是否与向前追溯的第三个符号对相等。按任意键以继续
","3-back好了，准备开始正式测试了吗如果你看到的符号对和之前第三项相匹配，请在3.5秒内按下 "K"键。否则请按"S"键。如果你准备好了，请按任何键开始实验。","你看到的符号对和向前追溯3项的符号相匹配吗？如果是，请按"K"键，反之请按"S"键。",23,§ £,s,source/positive/8185.JPG,0,7,7,6,,,,,0,11,11,11,,,,,,,,,,,,,,,,,,,,,,,,,,,,,,,,,,437.6607908999995,437.6607908999995,,437.6607908999995,,437.6607908999995,,437.6607908999995,,438.1466918999995,438.1647974000007,,s,1,0.9753708000007464,,,,,,,,,,1,001,2022-11-20_23h24.18.685,Lab5_Emotional_NBack_Task,2022.2.4,164.75577427881203,
3-back,positive,practice_pos_3.xlsx,pos_3.xlsx,"3-back在本轮实验中，您需要牢牢记住当前的符号对的值，并判断是否与向前追溯的第三个符号对相等。按任意键以继续
","3-back好了，准备开始正式测试了吗如果你看到的符号对和之前第三项相匹配，请在3.5秒内按下 "K"键。否则请按"S"键。如果你准备好了，请按任何键开始实验。","你看到的符号对和向前追溯3项的符号相匹配吗？如果是，请按"K"键，反之请按"S"键。",23,¥ §,k,source/positive/7450.JPG,0,7,7,6,,,,,0,12,12,12,,,,,,,,,,,,,,,,,,,,,,,,,,,,,,,,,,438.65510039999936,438.65510039999936,,438.65510039999936,,438.65510039999936,,438.65510039999936,,439.14062790000025,439.15853439999955,,s,0,1.2689384000004793,,,,,,,,,,1,001,2022-11-20_23h24.18.685,Lab5_Emotional_NBack_Task,2022.2.4,164.75577427881203,
3-back,positive,practice_pos_3.xlsx,pos_3.xlsx,"3-back在本轮实验中，您需要牢牢记住当前的符号对的值，并判断是否与向前追溯的第三个符号对相等。按任意键以继续
